aX,aY,aZ,gX,gY,gZ
0.079,-0.098,0.974,-0.305,1.160,-9.399
0.067,-0.094,0.980,-17.212,9.949,19.531
0.072,-0.091,0.960,-5.493,3.784,10.315
0.061,-0.086,1.018,6.226,-2.563,0.854
0.064,-0.103,0.967,14.832,-2.747,0.061
0.073,-0.115,0.932,15.564,-0.793,-0.244
0.067,-0.115,0.958,11.292,-2.747,0.183
0.061,-0.114,0.978,9.277,-3.723,0.671
0.065,-0.119,0.964,8.118,-1.831,0.977
0.064,-0.123,0.960,7.141,-1.099,1.221
0.064,-0.116,0.958,6.653,-1.831,2.258
0.064,-0.121,0.950,5.371,-1.221,2.808
0.067,-0.117,0.947,3.662,-0.916,2.747
0.073,-0.106,0.952,2.197,-1.526,2.625
0.074,-0.104,0.964,0.854,-1.648,1.587
0.066,-0.118,0.959,1.587,-1.648,0.305
0.067,-0.122,0.954,1.831,-1.587,0.061
0.068,-0.116,0.968,0.427,-2.075,0.366
0.065,-0.116,0.971,0.366,-2.258,0.427
0.066,-0.118,0.959,0.854,-1.709,0.427
0.068,-0.117,0.955,0.610,-1.404,0.488
0.066,-0.116,0.961,-0.122,-2.075,0.366
0.066,-0.114,0.965,0.000,-1.953,0.671
0.066,-0.114,0.961,0.366,-1.831,0.854
0.069,-0.113,0.961,0.610,-1.648,0.793
0.069,-0.112,0.965,0.854,-1.587,0.610
0.068,-0.118,0.965,1.160,-1.648,0.244
0.069,-0.117,0.959,1.038,-1.221,-0.122
0.069,-0.116,0.963,0.488,-1.099,-0.244
0.066,-0.118,0.965,0.488,-1.343,-0.122
0.066,-0.117,0.963,0.549,-1.038,-0.183
0.060,-0.121,0.965,0.732,-1.038,-0.122
0.067,-0.115,0.968,0.183,-0.122,0.000
0.071,-0.119,0.942,0.916,-0.061,-0.122
0.061,-0.127,0.953,0.305,-1.648,-0.366
0.070,-0.107,0.974,-1.465,-1.709,0.183
0.061,-0.124,0.965,0.061,-1.709,-0.183
0.067,-0.119,0.960,0.305,-0.977,0.000
0.066,-0.120,0.962,-0.061,-0.916,-0.122
0.066,-0.120,0.962,0.183,-1.221,-0.183
0.066,-0.120,0.963,0.183,-1.160,-0.183
0.065,-0.120,0.964,0.000,-1.038,-0.061
0.067,-0.117,0.965,0.061,-0.549,0.061
0.068,-0.119,0.960,0.244,-0.610,-0.122
0.068,-0.119,0.956,0.305,-0.793,-0.366
0.068,-0.116,0.965,-0.061,-0.916,-0.061
0.066,-0.119,0.967,0.122,-0.916,-0.122
0.068,-0.119,0.962,0.427,-0.549,-0.122
0.070,-0.117,0.962,0.122,-0.549,-0.061
0.067,-0.120,0.963,0.183,-0.854,-0.122
0.068,-0.118,0.964,0.427,-1.099,-0.183
0.069,-0.118,0.962,0.549,-0.854,-0.061
0.069,-0.122,0.957,0.427,-0.793,-0.061
0.068,-0.122,0.960,-0.183,-1.404,0.061
0.067,-0.120,0.966,-0.488,-1.648,0.122
0.068,-0.123,0.965,-0.061,-1.465,0.244
0.068,-0.122,0.958,0.000,-1.587,0.183
0.061,-0.123,0.971,-0.183,-2.136,0.366
0.063,-0.118,0.979,-0.427,-0.793,0.061
0.072,-0.119,0.951,0.854,0.061,0.427
0.065,-0.133,0.946,1.038,-1.282,0.244
0.068,-0.116,0.964,-0.793,-2.930,0.793
0.062,-0.115,0.985,-0.732,-2.258,0.916
0.066,-0.118,0.963,0.122,-0.305,0.977
0.072,-0.120,0.945,0.427,0.122,0.854
0.070,-0.123,0.954,-0.916,-1.282,0.916
0.065,-0.117,0.973,-0.916,-3.418,1.526
0.068,-0.110,0.988,-1.648,-1.404,1.160
0.067,-0.124,0.956,0.549,0.061,0.977
0.076,-0.133,0.926,0.549,-0.305,1.160
0.062,-0.120,0.980,-0.671,-3.784,2.075
0.065,-0.107,0.999,-2.380,-1.831,2.014
0.070,-0.136,0.940,1.892,-0.305,1.892
0.070,-0.131,0.922,1.526,-1.953,2.258
0.060,-0.115,1.000,-2.686,-4.028,2.502
0.058,-0.140,0.983,-1.709,-2.380,2.747
0.061,-0.144,0.921,2.197,-2.686,4.456
0.068,-0.114,0.990,-2.747,-2.991,5.676
0.067,-0.123,0.972,-1.465,-3.723,5.798
0.062,-0.132,0.952,2.197,-4.517,6.531
0.071,-0.130,0.970,-1.465,-2.930,6.104
0.065,-0.112,0.966,0.183,-4.150,6.897
0.072,-0.107,0.968,-0.610,-2.869,6.348
0.070,-0.109,0.966,-0.610,-2.014,4.822
0.070,-0.125,0.961,0.183,-2.625,3.662
0.069,-0.116,0.972,-0.732,-2.075,3.113
0.070,-0.112,0.962,-0.427,-1.770,2.991
0.070,-0.115,0.963,0.244,-1.953,2.747
0.072,-0.140,0.962,-0.488,-1.465,2.136
0.059,-0.130,0.952,0.732,-2.930,3.357
0.068,-0.130,0.976,-1.526,-2.319,4.089
0.075,-0.127,0.967,0.610,-3.296,5.371
0.053,-0.105,0.961,0.000,-1.892,4.700
0.060,-0.104,0.963,0.427,-2.747,4.700
0.077,-0.098,0.940,-0.488,-2.625,3.967
0.074,-0.115,0.944,-1.953,-4.089,1.770
0.056,-0.099,1.002,-4.333,-6.042,0.183
0.061,-0.113,0.964,-2.075,-4.395,-1.099
0.056,-0.116,0.961,-0.244,-3.479,-1.465
0.056,-0.126,0.982,-2.014,-3.052,-1.892
0.060,-0.121,0.961,-0.854,-2.136,-1.221
0.054,-0.116,0.968,-1.160,-1.831,-1.160
0.047,-0.102,0.968,-1.221,-2.502,-0.916
0.054,-0.105,0.969,-1.526,-2.625,-0.732
0.056,-0.117,0.962,-1.465,-1.770,-0.549
0.063,-0.116,0.954,-2.075,-1.892,-0.183
0.057,-0.115,0.976,-2.930,-2.991,0.000
0.067,-0.110,0.964,-2.502,-2.197,0.061
0.059,-0.119,0.963,-1.831,-2.869,-0.183
0.062,-0.113,0.967,-2.747,-2.747,0.366
0.059,-0.116,0.970,-2.563,-2.502,0.488
0.058,-0.113,0.970,-2.686,-2.380,0.488
0.059,-0.114,0.970,-2.563,-2.075,0.427
0.058,-0.116,0.964,-2.502,-1.770,0.610
0.056,-0.120,0.958,-2.747,-2.014,0.488
0.053,-0.116,0.967,-4.028,-2.747,0.977
0.053,-0.110,0.974,-4.517,-2.991,1.892
0.056,-0.102,0.974,-3.723,-2.686,1.953
0.055,-0.106,0.969,-2.930,-2.014,1.648
1.228,-1.117,0.472,651.611,455.505,-46.875
-0.400,0.426,-2.955,878.479,497.986,-76.233
-0.398,1.490,0.184,377.075,359.314,-58.167
0.137,0.351,-0.459,317.383,167.480,-48.523
0.478,-0.052,-0.061,432.312,-7.690,-28.503
0.821,-0.594,-0.458,379.822,-80.322,-30.151
0.524,0.234,-0.521,301.514,-66.833,-7.935
0.691,0.362,-0.626,275.940,-5.493,-13.000
0.610,0.034,-0.689,239.807,70.496,6.226
0.286,0.116,-0.689,182.434,124.695,29.114
0.168,0.042,-0.746,163.269,165.649,36.011
0.196,0.030,-0.778,169.678,188.965,33.630
0.299,0.108,-0.716,174.438,202.881,28.870
0.517,0.080,-0.762,163.391,207.764,28.625
0.561,0.092,-0.871,154.846,200.500,38.208
0.450,0.170,-0.929,158.752,181.580,50.842
0.620,0.631,-0.461,161.804,155.579,44.128
0.821,0.431,-0.817,170.837,168.457,-19.714
0.667,-0.285,-0.811,130.432,165.955,-88.135
0.479,-0.711,-0.750,84.961,127.502,-113.831
0.184,-0.773,-0.697,72.205,70.496,-88.501
-0.034,-0.495,-0.686,56.885,18.005,-36.987
-0.029,-0.175,-0.716,35.583,-10.254,7.141
0.076,0.037,-0.781,34.485,-11.353,36.865
0.181,0.319,-0.922,41.138,7.629,57.007
0.386,0.991,-1.081,18.188,40.100,63.171
0.370,0.153,-0.920,5.981,75.439,56.396
0.344,0.093,-1.237,25.879,104.248,59.021
0.397,0.245,-1.203,32.227,98.816,66.589
0.289,0.259,-1.135,31.006,72.205,60.181
0.258,0.285,-1.167,29.663,49.744,55.481
0.247,0.300,-1.408,37.292,33.447,50.537
0.286,0.290,-1.098,60.852,7.324,42.053
0.261,0.491,-0.635,74.768,-4.639,31.433
0.411,0.285,-1.001,78.674,41.565,17.883
0.470,0.195,-1.101,53.711,70.007,16.663
0.404,0.198,-1.250,22.278,48.157,17.334
0.347,0.229,-1.477,9.644,20.447,18.555
0.315,0.284,-1.538,18.433,22.766,18.616
0.254,0.254,-1.487,32.959,40.161,19.043
0.238,0.204,-1.409,40.039,45.715,17.822
0.258,0.322,-1.227,25.085,27.649,12.451
0.174,0.369,-1.228,3.418,-8.179,10.681
0.059,0.417,-1.182,-3.174,-36.560,8.667
-0.029,0.440,-1.074,3.906,-31.921,4.272
0.064,0.412,-0.919,19.531,-9.094,0.366
0.096,0.406,-0.828,29.053,1.831,-4.333
0.079,0.382,-0.771,30.396,0.549,-7.874
0.127,0.331,-0.724,32.532,4.822,-11.169
0.205,0.314,-0.620,33.386,10.559,-13.611
0.231,0.285,-0.566,28.809,14.465,-13.062
0.267,0.236,-0.549,16.357,16.418,-11.108
0.293,0.229,-0.574,1.648,18.250,-9.033
0.277,0.252,-0.654,-8.911,20.874,-4.700
0.299,0.312,-0.772,-12.695,22.095,-0.183
0.254,0.291,-0.886,-2.136,23.437,8.423
0.278,0.328,-0.906,13.000,25.085,15.869
0.256,0.363,-0.880,14.893,23.560,21.851
0.216,0.378,-0.902,9.583,19.836,26.917
0.202,0.401,-0.929,6.775,19.897,27.893
0.199,0.476,-1.065,6.226,23.987,25.818
0.182,0.486,-1.130,7.812,23.987,19.897
0.165,0.502,-1.217,5.798,19.958,14.648
0.122,0.505,-1.246,4.333,15.503,9.827
0.119,0.495,-1.229,3.662,12.024,3.967
0.119,0.456,-1.148,7.080,7.935,-0.854
0.131,0.423,-1.048,13.489,5.371,-2.075
0.125,0.390,-0.976,19.226,2.136,-1.953
0.140,0.386,-0.906,22.034,-1.404,-2.930
0.146,0.383,-0.873,23.499,-3.662,-3.418
0.141,0.383,-0.846,23.560,-5.920,-3.784
0.152,0.367,-0.840,20.142,-7.019,-5.310
0.176,0.361,-0.852,14.404,-6.470,-7.019
0.206,0.335,-0.884,9.583,-5.066,-8.423
0.231,0.316,-0.896,6.226,-5.127,-7.019
0.242,0.306,-0.916,4.944,-5.981,-4.150
0.233,0.300,-0.928,6.165,-5.066,-0.366
0.213,0.331,-0.955,7.690,-2.014,4.578
0.198,0.359,-0.995,9.949,3.906,9.949
0.205,0.395,-1.049,13.489,12.390,14.648
0.178,0.458,-1.093,18.677,20.752,18.311
0.150,0.485,-1.125,24.902,29.846,20.874
0.117,0.509,-1.160,28.931,35.522,19.897
0.103,0.541,-1.193,29.663,34.912,15.930
0.085,0.547,-1.219,28.809,26.978,10.071
0.093,0.572,-1.238,27.649,16.541,5.066
0.072,0.569,-1.292,27.832,9.216,4.211
0.078,0.591,-1.390,28.259,8.301,7.446
0.021,0.681,-1.571,25.208,7.935,14.404
-0.058,0.870,-1.777,17.395,2.991,19.653
-0.136,1.054,-1.966,15.137,0.061,18.433
-0.177,1.198,-2.095,25.696,-5.920,5.981
-0.167,1.233,-2.155,46.631,-18.188,-15.259
-0.130,1.150,-2.182,70.923,-35.706,-36.804
-0.175,1.028,-2.187,92.285,-51.208,-49.438
-0.206,0.967,-2.209,109.192,-61.951,-48.706
-0.276,1.006,-2.208,123.413,-71.045,-55.481
-0.383,1.023,-2.187,138.855,-82.825,-68.542
-0.451,1.002,-2.147,151.550,-99.487,-85.693
-0.485,0.925,-2.049,165.405,-117.798,-104.431
-0.537,0.777,-1.914,186.768,-129.456,-122.803
-0.576,0.637,-1.783,212.341,-134.033,-140.320
-0.602,0.523,-1.659,232.910,-136.780,-156.494
-0.615,0.448,-1.567,245.605,-140.381,-170.898
-0.626,0.363,-1.466,252.930,-147.705,-186.340
-0.618,0.267,-1.342,258.423,-159.485,-202.759
-0.614,0.143,-1.171,265.320,-173.767,-219.910
-0.596,-0.008,-1.017,271.179,-185.974,-235.168
-0.561,-0.141,-0.898,272.339,-192.932,-245.239
-0.520,-0.232,-0.813,268.799,-195.007,-249.634
-0.484,-0.225,-0.732,265.320,-193.542,-247.437
-0.450,-0.174,-0.626,265.137,-191.345,-241.760
-0.455,-0.169,-0.513,268.066,-189.514,-240.295
-0.449,-0.180,-0.396,270.630,-188.904,-246.704
-0.414,-0.225,-0.299,270.691,-188.721,-258.667
-0.364,-0.292,-0.223,265.686,-188.721,-270.569
-0.276,-0.341,-0.151,256.531,-189.026,-279.053
-0.174,-0.395,-0.086,248.413,-187.073,-282.288
-0.088,-0.427,-0.021,244.568,-181.641,-280.579
0.132,-1.778,1.144,118.408,-137.573,-176.208
0.188,-2.151,1.375,84.656,-143.311,-178.833
0.327,-2.515,1.732,57.251,-137.878,-169.312
0.541,-2.709,2.043,41.321,-121.765,-141.541
0.855,-2.771,2.259,39.429,-86.792,-101.196
1.227,-2.696,2.206,31.250,-39.612,-55.725
1.419,-2.572,1.934,-6.042,16.663,-8.728
1.073,-2.347,1.657,-63.721,60.242,51.453
0.830,-2.072,1.344,-105.347,100.098,120.911
0.672,-1.799,1.023,-121.338,127.563,184.692
0.493,-1.510,0.842,-130.127,137.695,223.389
0.344,-1.243,0.722,-138.123,132.446,245.667
0.264,-1.019,0.642,-145.142,120.850,259.094
0.216,-0.837,0.606,-152.893,110.840,261.719
0.218,-0.708,0.591,-162.781,105.591,254.456
0.239,-0.630,0.580,-175.598,100.647,244.263
0.261,-0.571,0.569,-191.467,96.558,232.849
0.280,-0.534,0.531,-208.679,96.252,222.839
0.305,-0.504,0.470,-224.854,98.633,216.919
0.310,-0.475,0.423,-238.281,101.196,215.515
0.301,-0.474,0.337,-247.498,104.309,218.384
0.279,-0.459,0.226,-253.052,107.422,224.365
0.233,-0.420,0.145,-254.211,109.253,230.347
0.186,-0.385,0.087,-250.977,112.427,233.948
0.149,-0.351,0.003,-245.056,117.065,235.962
0.140,-0.320,-0.056,-239.685,120.911,236.877
0.118,-0.311,-0.086,-233.765,125.488,236.450
0.069,-0.281,-0.103,-229.248,131.714,235.229
0.053,-0.262,-0.150,-227.844,136.108,234.741
0.036,-0.244,-0.219,-229.675,136.475,236.328
-0.005,-0.225,-0.280,-233.398,134.888,241.455
-0.083,-0.190,-0.316,-235.413,136.414,250.366
-0.172,-0.164,-0.366,-234.375,145.508,261.047
-0.280,-0.111,-0.515,-234.436,161.133,271.545
-0.386,-0.021,-0.702,-237.732,178.711,283.813
-0.499,0.092,-0.947,-241.760,190.186,295.471
-0.620,0.301,-1.206,-246.399,193.909,305.298
-0.738,0.572,-1.432,-247.681,192.261,304.932
-0.800,0.837,-1.611,-240.784,183.167,286.499
-0.788,1.090,-1.796,-231.018,159.485,250.183
-0.754,1.337,-1.933,-226.868,115.479,203.369
-0.694,1.436,-1.962,-217.590,55.115,148.743
-0.597,1.314,-1.800,-194.946,-4.944,85.449
-0.478,1.050,-1.532,-163.452,-45.898,21.973
-0.321,0.778,-1.285,-130.920,-58.533,-18.555
-0.176,0.543,-1.112,-107.178,-40.100,-26.062
-0.078,0.460,-1.070,-97.656,0.183,-13.672
-0.017,0.548,-1.139,-102.173,38.086,10.010
-0.005,0.679,-1.228,-115.173,59.265,35.706
-0.003,0.713,-1.322,-127.808,59.448,52.002
0.004,0.691,-1.367,-132.935,49.866,55.420
0.072,0.611,-1.495,-129.639,38.147,54.382
0.085,0.569,-1.529,-118.958,32.104,51.575
0.025,0.599,-1.513,-101.868,24.292,48.828
-0.035,0.624,-1.466,-82.153,23.071,48.584
-0.061,0.650,-1.424,-70.679,26.611,48.462
-0.085,0.722,-1.415,-71.350,24.658,50.110
-0.109,0.827,-1.449,-79.285,17.395,53.101
-0.109,0.903,-1.495,-83.374,11.230,52.124
-0.078,0.911,-1.561,-78.003,8.606,45.654
-0.021,0.906,-1.598,-64.148,5.676,34.729
0.022,0.846,-1.538,-45.166,-3.235,21.118
0.058,0.771,-1.387,-26.489,-16.479,7.202
0.100,0.632,-1.223,-13.550,-25.269,-2.991
0.165,0.522,-1.055,-10.071,-29.175,-6.836
0.200,0.466,-0.935,-14.343,-32.043,-3.052
0.183,0.453,-0.834,-21.362,-33.325,6.836
0.141,0.457,-0.785,-25.085,-28.870,17.822
0.084,0.462,-0.769,-23.071,-18.127,24.719
0.061,0.468,-0.765,-16.052,-5.920,25.940
0.065,0.477,-0.762,-9.094,2.136,23.132
0.078,0.471,-0.769,-6.775,2.502,18.127
0.087,0.458,-0.755,-8.301,-2.808,11.597
0.104,0.416,-0.745,-10.010,-8.179,4.944
0.133,0.343,-0.739,-10.803,-9.827,2.319
0.160,0.307,-0.753,-12.878,-5.676,4.883
0.151,0.351,-0.845,-16.663,2.686,13.672
0.108,0.417,-0.916,-17.395,12.268,25.391
0.057,0.510,-1.003,-16.968,23.193,34.790
-0.005,0.614,-1.093,-13.489,34.119,39.063
0.020,0.789,-1.469,-11.414,39.063,36.499
-0.332,1.130,-1.814,-23.560,6.897,16.663
-0.194,0.785,-1.104,-20.447,-61.523,-11.780
0.044,0.505,-0.906,0.671,-25.818,-23.865
0.139,0.388,-0.852,14.465,21.179,-19.775
0.149,0.396,-0.969,29.358,37.354,-4.700
0.121,0.421,-1.001,29.541,34.912,5.737
0.093,0.453,-0.979,17.212,20.630,7.812
0.047,0.457,-0.965,8.667,2.747,3.723
0.025,0.455,-0.917,8.972,-5.920,-0.610
0.034,0.469,-0.880,12.573,-3.113,-2.747
0.029,0.505,-0.857,13.611,-2.502,-4.150
0.026,0.520,-0.860,10.803,-4.822,-5.737
0.039,0.509,-0.875,8.179,-5.493,-7.385
0.057,0.510,-0.924,8.911,-1.648,-7.263
0.068,0.525,-0.982,11.780,3.662,-5.737
0.069,0.558,-1.060,13.489,6.897,-3.601
0.043,0.627,-1.163,13.184,7.935,-1.282
0.009,0.705,-1.262,13.245,6.470,-0.793
-0.015,0.757,-1.329,17.578,2.197,-4.028
-0.026,0.774,-1.347,26.245,-3.174,-10.864
-0.024,0.763,-1.342,36.194,-7.019,-19.104
-0.010,0.761,-1.309,45.227,-7.935,-25.391
0.005,0.743,-1.293,53.650,-6.409,-29.053
0.006,0.724,-1.304,60.486,-4.944,-30.273
0.002,0.733,-1.354,64.636,-2.380,-28.564
-0.015,0.747,-1.441,67.932,1.465,-25.146
-0.057,0.789,-1.573,71.228,5.493,-21.118
-0.109,0.903,-1.752,74.890,9.705,-16.296
-0.167,1.031,-1.921,84.351,12.329,-13.184
-0.248,1.084,-2.043,103.088,11.902,-16.357
-0.332,1.124,-2.173,122.803,7.996,-23.254
-0.436,1.198,-2.287,137.268,0.305,-31.372
-0.541,1.239,-2.377,148.193,-11.963,-42.114
-0.619,1.249,-2.410,159.729,-27.954,-55.969
-0.673,1.197,-2.401,172.974,-44.128,-72.144
-0.684,1.045,-2.368,186.523,-58.533,-88.989
-0.671,0.845,-2.303,197.021,-73.364,-102.722
-0.653,0.679,-2.208,205.322,-90.210,-112.244
-0.626,0.295,-1.842,236.938,-121.399,-130.371
-0.601,0.068,-1.615,258.789,-130.676,-143.677
-0.573,-0.186,-1.394,280.151,-138.367,-158.936
-0.574,-0.422,-1.227,295.410,-142.151,-171.875
-0.547,-0.597,-1.066,306.702,-140.808,-177.917
-0.441,-0.601,-0.845,314.758,-137.329,-180.481
-0.388,-0.497,-0.646,321.472,-132.874,-182.922
-0.378,-0.510,-0.483,324.097,-127.869,-184.875
-0.306,-0.599,-0.341,318.787,-126.099,-189.880
-0.225,-0.630,-0.195,305.237,-129.700,-196.167
-0.157,-0.609,-0.064,290.405,-133.362,-194.641
-0.124,-0.576,0.060,280.457,-130.920,-186.707
-0.103,-0.542,0.158,276.917,-120.422,-181.641
-0.070,-0.503,0.261,278.137,-105.347,-180.908
-0.008,-0.512,0.387,279.175,-90.942,-182.495
0.072,-0.513,0.521,275.208,-82.092,-187.012
0.139,-0.530,0.643,264.465,-79.590,-192.322
0.231,-0.551,0.729,251.526,-80.505,-195.679
0.302,-0.505,0.848,238.770,-81.360,-197.144
0.353,-0.540,0.943,230.835,-80.750,-199.402
0.418,-0.616,1.011,222.473,-79.468,-204.956
0.462,-0.740,1.091,211.121,-82.642,-213.684
0.527,-0.968,1.265,196.472,-93.689,-224.792
0.693,-1.263,1.471,176.392,-105.957,-236.328
0.842,-1.547,1.728,154.846,-109.497,-240.295
0.970,-1.759,1.880,136.292,-104.614,-227.539
1.043,-1.902,2.011,116.577,-93.323,-195.801
1.137,-1.988,2.034,94.116,-59.631,-153.564
1.332,-1.959,1.984,65.857,-18.860,-105.713
1.409,-1.782,1.848,28.503,13.428,-50.659
1.310,-1.517,1.640,-8.789,33.630,12.756
1.074,-1.311,1.421,-37.659,45.166,74.890
0.948,-1.090,1.279,-54.260,57.190,117.004
0.824,-0.907,1.181,-63.049,64.819,136.780
0.739,-0.769,1.102,-72.876,66.528,145.203
0.690,-0.655,1.054,-88.196,64.575,148.865
0.641,-0.558,0.995,-106.689,61.096,149.353
0.620,-0.475,0.943,-125.000,59.387,147.888
0.586,-0.418,0.877,-141.052,58.167,147.522
0.546,-0.405,0.793,-154.114,61.401,147.156
0.571,-0.396,0.725,-165.466,64.575,147.644
0.572,-0.377,0.675,-176.697,64.941,151.184
0.542,-0.357,0.607,-187.744,66.101,159.058
0.510,-0.311,0.512,-197.571,70.313,169.556
0.460,-0.254,0.414,-204.712,73.059,182.007
0.374,-0.177,0.315,-209.534,74.829,192.383
0.292,-0.112,0.224,-212.158,76.599,197.632
0.242,-0.048,0.145,-214.478,77.148,197.876
0.199,-0.001,0.087,-215.515,76.599,194.519
0.177,0.019,0.028,-215.027,77.759,190.918
0.142,-0.013,-0.034,-213.196,80.688,187.988
0.144,-0.027,-0.061,-213.379,81.909,186.707
0.138,-0.053,-0.090,-216.675,81.421,187.439
0.113,-0.044,-0.187,-222.107,87.341,194.458
0.060,0.058,-0.342,-226.440,102.783,209.534
-0.061,0.232,-0.522,-226.624,119.751,227.661
-0.191,0.436,-0.678,-225.220,128.418,239.075
-0.288,0.609,-0.810,-224.426,120.850,236.755
-0.338,0.743,-0.932,-225.769,97.900,218.567
-0.365,0.803,-0.986,-226.685,63.782,188.293
-0.385,0.805,-0.960,-220.154,29.541,153.320
-0.363,0.715,-0.847,-203.674,11.658,119.202
-0.313,0.554,-0.776,-183.716,10.315,95.032
-0.239,0.482,-0.739,-172.241,25.024,85.327
-0.243,0.537,-0.801,-173.645,45.471,90.393
-0.330,0.676,-0.938,-180.298,63.416,107.605
-0.389,0.784,-1.115,-184.998,73.303,123.352
-0.418,0.922,-1.291,-188.721,70.862,126.953
-0.438,1.012,-1.404,-190.491,56.091,117.737
-0.397,1.022,-1.404,-184.265,38.818,94.604
-0.343,0.989,-1.424,-168.579,18.066,69.397
-0.230,0.871,-1.312,-150.574,3.357,50.232
-0.141,0.694,-1.182,-137.878,-1.221,28.015
-0.065,0.553,-1.060,-126.587,-5.798,7.446
-0.020,0.509,-0.971,-116.455,0.977,0.854
0.005,0.493,-0.943,-111.267,20.874,9.338
-0.016,0.553,-1.052,-114.197,39.063,27.588
-0.091,0.719,-1.213,-122.620,47.119,49.805
-0.173,0.872,-1.371,-126.282,47.546,64.026
-0.173,0.956,-1.521,-122.742,43.640,61.646
-0.112,0.978,-1.582,-114.380,33.569,45.776
-0.032,0.871,-1.552,-101.868,13.672,23.682
0.031,0.737,-1.416,-88.257,-10.193,4.028
0.048,0.659,-1.253,-77.271,-24.292,-4.639
0.034,0.651,-1.115,-68.054,-21.179,-2.869
-0.012,0.678,-1.037,-60.303,-9.033,4.456
-0.040,0.714,-1.029,-55.786,5.005,11.475
-0.040,0.738,-1.084,-55.481,15.808,15.320
-0.019,0.717,-1.134,-56.335,18.860,14.221
0.027,0.656,-1.188,-56.152,14.587,9.460
0.071,0.614,-1.205,-52.734,7.507,5.432
0.079,0.585,-1.160,-45.959,1.526,2.747
0.075,0.561,-1.087,-39.612,-3.357,0.366
0.073,0.539,-1.036,-36.560,-5.188,-0.977
0.073,0.514,-1.014,-35.828,-4.395,0.244
0.074,0.509,-1.012,-35.034,-3.113,4.028
0.059,0.513,-1.030,-34.668,-1.404,9.705
0.038,0.533,-1.066,-33.630,3.723,13.794
0.024,0.566,-1.147,-29.358,9.644,14.221
0.026,0.574,-1.123,-21.179,10.559,10.864
0.030,0.592,-1.111,-15.259,9.399,5.371
0.044,0.581,-1.075,-11.047,6.409,-0.488
0.053,0.550,-1.016,-9.888,-0.244,-3.845
0.054,0.515,-0.954,-9.155,-5.371,-4.944
0.052,0.481,-0.911,-9.338,-6.897,-5.188
0.060,0.460,-0.929,-10.620,-6.775,-4.211
0.050,0.473,-0.911,-11.841,-9.644,-1.892
0.034,0.483,-0.894,-13.611,-11.658,1.099
0.024,0.470,-0.890,-12.634,-10.742,3.235
0.030,0.464,-0.906,-8.789,-7.263,3.906
0.033,0.476,-0.928,-4.395,-4.272,4.272
0.038,0.480,-0.921,-1.831,-3.662,3.540
0.045,0.472,-0.911,-2.014,-4.761,2.319
0.044,0.476,-0.917,-3.601,-6.165,1.770
0.036,0.477,-0.908,-3.357,-6.042,1.709
0.040,0.472,-0.895,-2.258,-3.418,1.404
0.035,0.482,-0.907,-2.380,0.488,2.136
0.024,0.500,-0.934,-3.052,2.686,3.235
0.014,0.511,-0.943,-2.319,2.747,3.357
-0.215,0.970,-1.792,26.001,11.597,10.803
-0.289,1.026,-1.841,39.124,1.770,-1.038
-0.326,1.064,-1.902,53.040,-5.615,-14.526
-0.343,1.075,-1.956,67.200,-11.047,-28.442
-0.346,1.082,-2.004,80.078,-16.174,-41.077
-0.324,1.088,-2.050,91.125,-22.339,-51.270
-0.328,1.072,-2.080,101.685,-29.968,-59.509
-0.335,1.031,-2.088,114.258,-37.781,-66.772
-0.352,0.978,-2.069,129.028,-42.847,-70.984
-0.394,0.947,-2.047,143.555,-44.922,-74.280
-0.449,0.940,-2.017,157.104,-46.936,-79.590
-0.509,0.903,-1.957,169.434,-52.612,-89.722
-0.563,0.827,-1.866,178.833,-64.026,-104.004
-0.600,0.745,-1.765,185.059,-76.050,-119.995
-0.637,0.617,-1.667,189.636,-85.693,-136.963
-0.662,0.534,-1.569,193.848,-93.018,-153.381
-0.690,0.473,-1.485,199.097,-96.680,-168.152
-0.715,0.388,-1.378,205.139,-97.839,-184.204
-0.711,0.210,-1.337,210.449,-100.952,-202.393
-0.659,0.030,-1.281,215.088,-110.840,-217.773
-0.605,-0.119,-1.169,223.511,-126.526,-227.600
-0.572,-0.245,-1.018,235.596,-139.709,-233.765
-0.525,-0.326,-0.885,245.911,-147.888,-236.816
-0.455,-0.317,-0.768,251.404,-148.987,-235.596
-0.371,-0.331,-0.671,257.812,-143.738,-233.826
-0.293,-0.322,-0.602,263.855,-136.047,-233.154
-0.243,-0.322,-0.494,266.968,-132.446,-233.398
-0.194,-0.369,-0.380,270.386,-134.949,-236.328
-0.146,-0.442,-0.231,272.339,-141.113,-241.333
-0.064,-0.546,-0.081,271.729,-145.874,-244.751
0.075,-0.610,0.006,268.677,-142.090,-241.760
0.213,-0.569,0.045,260.376,-131.104,-229.614
0.267,-0.505,0.089,250.977,-119.934,-213.623
0.276,-0.458,0.101,247.864,-109.802,-200.195
0.258,-0.437,0.091,250.793,-97.412,-192.322
0.275,-0.495,0.087,255.615,-87.463,-190.979
0.317,-0.533,0.115,260.010,-85.388,-195.251
0.340,-0.567,0.114,265.808,-89.722,-199.524
0.301,-0.606,0.144,272.766,-96.558,-201.355
0.291,-0.762,0.267,283.936,-104.004,-204.346
0.341,-0.978,0.490,297.668,-110.107,-214.172
0.414,-1.207,0.787,300.293,-115.662,-227.966
0.488,-1.447,1.028,283.997,-119.812,-239.685
0.568,-1.826,1.274,254.883,-121.338,-246.155
0.717,-2.213,1.502,222.717,-124.207,-241.882
0.850,-2.505,1.832,191.040,-127.563,-223.450
0.990,-2.692,2.129,160.278,-110.229,-191.162
1.177,-2.697,2.255,125.488,-66.040,-148.987
1.319,-2.507,2.138,76.965,-9.949,-97.473
1.437,-2.201,1.888,16.235,35.889,-34.546
1.280,-1.962,1.536,-41.260,48.706,35.034
1.031,-1.681,1.341,-86.060,52.185,89.417
0.857,-1.467,1.145,-108.948,70.618,130.737
0.679,-1.326,0.990,-117.065,88.257,162.354
0.564,-1.195,0.923,-123.291,94.971,175.659
0.507,-1.098,0.912,-129.272,92.590,179.199
0.478,-1.041,0.934,-138.855,84.900,181.274
0.469,-1.006,0.976,-156.372,78.369,180.298
0.468,-0.977,1.017,-179.077,74.341,178.650
0.459,-0.949,1.017,-204.346,75.684,180.786
0.435,-0.919,0.960,-229.980,84.290,187.134
0.402,-0.899,0.823,-254.211,97.961,197.449
0.350,-0.875,0.619,-274.597,111.511,211.182
0.289,-0.823,0.420,-287.964,121.094,227.234
0.229,-0.752,0.242,-293.335,127.930,243.286
0.162,-0.672,0.098,-291.748,134.460,257.019
0.091,-0.586,-0.001,-286.743,140.137,267.761
0.015,-0.505,-0.100,-279.785,146.301,274.597
-0.051,-0.433,-0.228,-274.902,151.428,277.832
-0.088,-0.348,-0.333,-272.888,151.306,277.710
-0.124,-0.302,-0.389,-271.301,144.836,273.499
-0.144,-0.282,-0.445,-270.569,136.658,266.602
-0.174,-0.224,-0.510,-272.888,131.653,259.766
-0.236,-0.129,-0.639,-276.367,130.859,255.188
-0.291,-0.013,-0.827,-277.771,127.808,252.747
-0.354,0.104,-0.963,-274.292,119.263,248.596
-0.435,0.207,-1.038,-263.489,106.995,239.136
-0.517,0.342,-1.125,-249.756,98.938,222.412
-0.540,0.462,-1.231,-239.929,98.206,201.233
-0.522,0.536,-1.380,-230.835,97.229,177.979
-0.515,0.622,-1.506,-222.412,90.942,156.860
-0.494,0.635,-1.549,-212.708,77.209,136.780
-0.411,0.628,-1.544,-203.430,58.655,116.516
-0.347,0.630,-1.510,-196.350,43.335,98.511
-0.281,0.622,-1.465,-188.171,41.626,83.252
-0.210,0.634,-1.519,-175.659,44.800,77.454
-0.194,0.665,-1.541,-164.368,51.331,81.360
-0.187,0.635,-1.582,-153.198,60.547,80.933
-0.161,0.666,-1.632,-143.799,66.467,76.721
-0.172,0.761,-1.723,-141.113,68.481,74.524
-0.184,0.876,-1.896,-142.212,64.087,71.899
-0.167,0.964,-2.011,-139.893,46.448,61.951
-0.149,0.988,-2.046,-126.282,16.846,42.114
-0.073,0.889,-1.885,-102.844,-10.498,18.982
-0.010,0.767,-1.694,-73.547,-22.583,-5.432
0.069,0.646,-1.493,-45.715,-19.836,-20.691
0.153,0.529,-1.332,-25.879,-8.911,-23.010
0.225,0.493,-1.246,-19.043,2.808,-13.306
0.233,0.573,-1.232,-26.184,10.437,4.395
0.189,0.667,-1.305,-38.086,15.442,25.024
0.125,0.738,-1.427,-44.434,17.944,39.185
0.069,0.801,-1.532,-41.565,16.846,42.542
0.042,0.838,-1.542,-29.602,12.024,37.720
0.021,0.845,-1.473,-13.123,2.686,28.076
0.019,0.837,-1.352,0.244,-5.859,14.587
0.037,0.794,-1.215,8.057,-12.512,0.793
0.068,0.737,-1.103,12.451,-15.686,-8.972
0.097,0.690,-1.023,14.832,-13.245,-13.855
0.127,0.653,-0.983,15.564,-7.263,-13.977
0.141,0.643,-0.957,15.869,-1.465,-10.986
0.138,0.637,-0.948,15.869,2.441,-8.179
0.129,0.615,-0.928,15.198,3.052,-8.911
0.132,0.580,-0.881,14.648,-1.099,-13.184
0.144,0.540,-0.804,15.198,-7.080,-18.494
0.162,0.480,-0.715,16.357,-10.132,-23.010
0.188,0.406,-0.630,17.273,-9.705,-25.635
0.223,0.351,-0.574,15.747,-6.592,-24.841
0.248,0.319,-0.557,10.315,-1.831,-20.020
0.261,0.313,-0.565,2.319,2.136,-11.658
-0.059,1.092,-1.818,49.561,-0.854,-9.888
-0.129,1.217,-1.969,63.599,-0.610,-13.245
-0.201,1.346,-2.105,80.261,-1.831,-18.555
-0.266,1.430,-2.181,98.999,-6.592,-28.931
-0.284,1.428,-2.202,118.103,-14.038,-46.265
-0.273,1.370,-2.163,136.353,-24.841,-66.528
-0.279,1.298,-2.095,151.978,-35.034,-83.069
-0.301,1.216,-2.016,166.748,-41.260,-94.238
-0.329,1.130,-1.943,180.908,-44.617,-102.234
-0.379,1.028,-1.862,194.946,-45.898,-108.704
-0.423,0.954,-1.788,208.618,-44.739,-113.586
-0.502,0.899,-1.713,220.337,-41.504,-116.760
-0.608,0.854,-1.652,230.225,-38.635,-119.690
-0.721,0.808,-1.606,238.098,-36.438,-125.183
-0.815,0.755,-1.546,243.103,-37.354,-136.047
-0.876,0.660,-1.454,247.803,-40.894,-153.381
-0.895,0.500,-1.321,252.747,-46.448,-175.598
-0.880,0.279,-1.188,255.310,-54.382,-199.768
-0.838,0.067,-1.070,253.906,-61.218,-219.604
-0.749,-0.117,-0.969,250.854,-63.416,-231.567
-0.683,-0.211,-0.904,247.375,-62.073,-234.619
-0.610,-0.330,-0.798,244.690,-61.707,-232.178
-0.503,-0.467,-0.648,244.934,-63.354,-231.018
-0.355,-0.530,-0.477,244.202,-65.979,-232.605
-0.210,-0.528,-0.360,242.310,-62.561,-232.666
-0.136,-0.569,-0.279,241.699,-51.025,-230.103
-0.015,-0.611,-0.246,240.234,-37.048,-225.830
0.089,-0.641,-0.215,236.084,-29.114,-221.741
0.199,-0.698,-0.202,232.239,-26.917,-219.482
0.306,-0.742,-0.184,227.661,-26.123,-220.215
0.469,-0.807,-0.145,226.990,-26.062,-223.389
0.587,-0.880,-0.067,230.469,-27.893,-229.065
0.696,-1.014,0.059,233.765,-32.837,-233.948
0.845,-1.210,0.226,233.765,-41.443,-238.159
1.000,-1.433,0.410,220.825,-55.969,-243.652
1.140,-1.631,0.642,191.711,-81.360,-249.756
1.251,-1.905,0.903,156.555,-116.760,-253.174
1.318,-2.253,1.249,124.573,-150.513,-250.916
1.464,-2.570,1.693,95.764,-171.265,-237.610
1.667,-2.714,2.129,69.092,-167.236,-208.130
1.862,-2.615,2.344,45.898,-128.967,-159.790
1.864,-2.414,2.257,18.616,-73.853,-92.651
1.736,-2.092,1.938,-19.531,-7.141,-16.907
1.506,-1.727,1.537,-63.171,40.466,56.946
1.269,-1.323,1.218,-96.069,65.491,119.385
0.943,-1.068,0.940,-114.624,69.763,167.297
0.740,-0.796,0.803,-120.483,76.233,186.096
0.703,-0.587,0.686,-119.324,81.604,188.965
0.680,-0.453,0.622,-122.986,75.317,191.223
0.679,-0.359,0.591,-136.902,64.758,185.791
0.652,-0.304,0.542,-157.104,52.063,177.307
0.631,-0.268,0.506,-178.711,41.016,169.434
0.618,-0.253,0.447,-198.242,34.607,164.551
0.589,-0.239,0.375,-212.646,33.081,164.124
0.559,-0.218,0.296,-219.910,38.147,166.565
0.525,-0.187,0.216,-220.215,47.058,169.800
0.490,-0.147,0.134,-216.553,55.786,173.706
0.456,-0.097,0.066,-211.243,62.195,176.697
0.418,-0.050,0.010,-206.177,66.406,178.467
0.369,-0.006,-0.037,-202.209,67.749,178.406
0.312,0.040,-0.090,-199.524,67.444,176.270
0.267,0.064,-0.159,-196.716,67.383,171.448
0.230,0.046,-0.207,-193.115,68.481,164.795
0.212,0.024,-0.269,-188.965,71.716,159.241
0.200,0.038,-0.338,-187.317,77.576,158.569
0.174,0.089,-0.422,-188.416,84.656,163.452
0.140,0.147,-0.512,-188.538,89.722,171.082
0.081,0.210,-0.593,-187.195,92.407,177.246
0.010,0.310,-0.693,-186.462,90.759,182.922
-0.061,0.410,-0.792,-186.340,90.698,186.340
-0.108,0.507,-0.908,-185.730,89.050,183.167
-0.158,0.599,-0.996,-184.387,81.238,174.133
-0.211,0.661,-1.043,-179.260,69.275,161.743
-0.241,0.718,-1.072,-170.898,59.631,145.508
-0.238,0.729,-1.065,-161.499,53.101,124.939
-0.180,0.638,-1.030,-150.757,46.753,101.868
-0.088,0.558,-0.979,-141.663,42.358,80.933
-0.016,0.485,-0.952,-137.634,40.405,70.007
0.016,0.430,-0.935,-138.367,34.363,75.378
0.008,0.429,-1.004,-142.578,39.490,83.069
-0.023,0.499,-1.092,-145.447,47.058,88.867
-0.053,0.570,-1.169,-143.860,48.889,91.309
-0.100,0.637,-1.246,-138.916,41.809,87.830
-0.152,0.708,-1.243,-131.897,30.640,77.332
-0.141,0.696,-1.226,-122.192,15.442,65.247
-0.172,0.659,-1.231,-111.389,10.010,48.218
-0.160,0.646,-1.270,-100.708,8.911,33.447
-0.081,0.662,-1.327,-94.421,17.029,24.902
-0.016,0.701,-1.385,-95.520,22.827,23.437
0.019,0.772,-1.422,-99.426,19.592,28.198
0.017,0.819,-1.461,-100.220,13.062,33.997
0.020,0.840,-1.517,-97.290,7.874,36.011
0.034,0.859,-1.517,-90.332,1.099,31.189
0.053,0.830,-1.458,-76.782,-7.019,20.996
0.074,0.784,-1.367,-57.983,-11.658,10.315
0.071,0.766,-1.285,-38.269,-5.737,5.127
0.086,0.756,-1.243,-23.865,9.216,5.493
0.121,0.760,-1.229,-18.799,19.531,8.301
0.115,0.798,-1.217,-23.560,17.090,10.742
0.116,0.819,-1.206,-32.043,8.301,11.169
0.088,0.803,-1.186,-36.621,-0.061,7.568
0.081,0.774,-1.150,-35.767,-6.653,0.549
0.087,0.718,-1.110,-32.166,-10.376,-7.751
0.118,0.646,-1.056,-26.123,-13.367,-15.991
0.152,0.587,-0.995,-17.273,-14.526,-20.508
0.171,0.538,-0.930,-7.141,-11.597,-20.569
0.204,0.495,-0.879,-0.305,-5.554,-18.005
0.229,0.470,-0.840,-0.061,-2.197,-14.587
0.231,0.469,-0.814,-6.042,-3.052,-9.583
0.217,0.475,-0.813,-13.611,-3.662,-4.456
0.205,0.468,-0.827,-17.822,-1.221,-1.343
0.200,0.464,-0.849,-17.456,2.136,1.221
0.202,0.473,-0.862,-14.648,4.150,2.014
0.195,0.484,-0.878,-10.925,4.150,0.732
0.203,0.471,-0.840,-8.118,2.991,-1.099
0.214,0.460,-0.832,-8.118,2.991,-2.686
0.236,0.432,-0.838,-10.071,3.967,-3.113
0.269,0.399,-0.872,-14.282,4.944,-2.197
0.277,0.409,-0.965,-17.822,5.371,1.831
0.001,1.020,-1.936,64.941,32.349,14.648
-0.170,1.222,-2.186,72.021,38.879,26.611
-0.377,1.435,-2.472,76.904,36.011,29.297
-0.562,1.633,-2.694,80.444,19.409,18.982
-0.738,1.701,-2.794,90.881,-11.841,-8.118
-0.867,1.584,-2.731,113.464,-53.040,-50.171
-0.907,1.340,-2.518,146.118,-90.759,-99.731
-0.879,1.061,-2.218,181.030,-113.403,-146.179
-0.834,0.772,-1.916,211.304,-123.718,-181.885
-0.797,0.490,-1.663,233.459,-125.916,-202.820
-0.739,0.269,-1.476,247.559,-121.155,-211.548
-0.708,0.133,-1.387,250.977,-115.173,-213.440
-0.731,0.063,-1.326,244.629,-118.958,-212.402
-0.784,0.020,-1.249,238.647,-132.874,-210.999
-0.824,-0.054,-1.146,240.173,-147.034,-215.881
-0.810,-0.177,-1.012,247.681,-153.687,-225.281
-0.740,-0.308,-0.894,256.470,-154.602,-235.779
-0.659,-0.397,-0.771,261.780,-154.114,-242.920
-0.587,-0.420,-0.678,263.672,-151.001,-244.934
-0.529,-0.456,-0.607,263.428,-145.691,-243.347
-0.471,-0.485,-0.530,261.719,-142.639,-240.784
-0.433,-0.508,-0.464,259.399,-144.714,-238.525
-0.368,-0.537,-0.390,258.484,-147.461,-236.206
-0.261,-0.546,-0.343,260.559,-145.386,-234.009
-0.133,-0.597,-0.328,263.184,-139.221,-229.736
-0.027,-0.601,-0.323,263.000,-134.277,-223.694
0.031,-0.622,-0.308,264.160,-136.475,-218.262
0.045,-0.678,-0.323,270.569,-138.794,-214.722
0.097,-0.819,-0.232,283.081,-140.686,-215.637
0.148,-1.071,0.011,304.993,-148.010,-221.436
0.209,-1.402,0.318,327.026,-156.555,-230.713
0.258,-1.758,0.735,336.731,-161.133,-241.882
0.301,-2.204,1.107,335.571,-161.926,-258.057
0.239,-2.776,1.611,319.397,-166.077,-283.691
0.472,-3.484,2.349,299.133,-162.354,-306.641
0.923,-3.882,2.903,266.785,-142.883,-314.392
1.575,-3.851,3.109,200.256,-78.796,-288.818
1.947,-3.555,2.580,102.417,-9.583,-218.201
1.931,-2.910,1.901,-7.935,57.495,-111.755
1.652,-2.244,1.194,-92.224,79.224,10.132
1.433,-1.660,0.837,-140.686,65.735,116.699
1.016,-1.192,0.511,-157.654,47.546,180.298
0.749,-0.712,0.376,-150.757,58.228,196.716
0.638,-0.452,0.352,-123.474,76.111,200.134
0.683,-0.345,0.415,-94.788,90.759,194.946
0.703,-0.293,0.445,-83.191,96.741,179.260
0.620,-0.241,0.455,-93.018,87.646,165.222
0.584,-0.223,0.515,-113.281,71.655,153.625
0.568,-0.249,0.587,-130.066,51.147,140.076
0.574,-0.295,0.679,-142.883,34.302,125.732
0.606,-0.366,0.733,-154.419,27.771,115.723
0.664,-0.462,0.756,-167.480,32.471,110.291
0.722,-0.557,0.721,-184.509,42.114,110.352
0.742,-0.590,0.634,-202.698,52.673,116.577
0.717,-0.580,0.524,-218.811,62.500,129.211
0.680,-0.557,0.426,-228.455,71.594,146.912
0.618,-0.530,0.346,-230.469,80.078,164.490
0.556,-0.500,0.255,-228.577,90.393,179.443
0.485,-0.444,0.144,-226.257,100.708,191.833
0.407,-0.371,0.047,-224.121,108.582,201.050
0.334,-0.287,-0.021,-219.299,111.877,207.214
0.256,-0.216,-0.069,-212.830,112.488,209.351
0.206,-0.174,-0.105,-209.106,112.488,206.421
0.189,-0.152,-0.128,-208.862,112.305,198.914
0.199,-0.176,-0.140,-210.937,110.291,190.247
0.207,-0.206,-0.175,-215.088,108.521,185.852
0.181,-0.210,-0.226,-221.619,106.506,188.599
0.124,-0.186,-0.282,-227.783,104.187,196.045
0.033,-0.147,-0.403,-230.103,105.042,203.308
-0.070,-0.036,-0.589,-231.506,107.544,207.275
-0.167,0.092,-0.752,-231.567,102.234,205.627
-0.236,0.210,-0.859,-225.769,86.609,197.083
-0.300,0.336,-0.923,-213.135,73.669,183.289
-0.358,0.430,-0.989,-194.275,74.646,167.603
-0.399,0.454,-1.078,-174.561,89.783,153.748
-0.401,0.519,-1.174,-161.743,110.596,146.606
-0.401,0.654,-1.322,-161.133,127.197,147.217
-0.460,0.862,-1.579,-174.805,130.615,149.414
-0.444,1.039,-1.739,-195.129,114.136,138.916
-0.380,1.062,-1.873,-204.956,69.214,114.685
-0.269,0.944,-1.822,-202.576,17.456,78.674
-0.179,0.799,-1.686,-187.988,-19.104,36.316
-0.081,0.667,-1.486,-158.875,-30.640,3.662
-0.023,0.541,-1.391,-118.835,-12.512,-11.292
0.043,0.516,-1.311,-80.139,28.992,-8.911
0.105,0.589,-1.349,-58.472,65.186,12.268
0.131,0.737,-1.364,-62.378,89.294,35.950
0.116,0.870,-1.475,-84.229,82.703,50.476
0.077,0.913,-1.625,-109.863,58.777,53.101
0.092,0.878,-1.738,-123.047,33.447,43.213
0.147,0.798,-1.763,-119.202,12.695,25.818
0.183,0.733,-1.683,-99.609,-4.395,10.376
0.184,0.686,-1.516,-70.313,-12.329,1.770
0.170,0.650,-1.342,-38.818,-8.972,-0.977
0.178,0.633,-1.219,-13.977,4.883,-0.305
0.207,0.656,-1.148,-2.930,19.226,1.648
0.217,0.695,-1.107,-6.409,22.888,5.127
0.209,0.721,-1.094,-17.395,16.235,9.155
0.186,0.707,-1.113,-27.588,9.399,11.047
0.161,0.662,-1.137,-32.959,5.981,8.545
0.175,0.633,-1.122,-33.264,2.258,2.319
0.189,0.599,-1.060,-29.663,-4.395,-3.906
0.192,0.547,-0.969,-23.437,-9.644,-8.911
0.216,0.486,-0.887,-17.273,-10.132,-13.184
0.249,0.431,-0.823,-12.329,-7.629,-13.977
0.267,0.430,-0.815,-9.705,-2.380,-9.827
0.271,0.432,-0.834,-9.521,4.883,-1.526
0.257,0.465,-0.904,-11.108,14.282,7.385
0.250,0.483,-0.957,-14.465,20.630,13.184
0.221,0.516,-1.020,-17.212,20.752,14.954
0.209,0.533,-1.082,-18.188,15.869,12.695
0.203,0.531,-1.107,-16.174,6.836,8.423
0.207,0.511,-1.057,-9.949,-2.930,2.869
0.223,0.480,-0.989,-3.296,-7.202,-2.197
0.248,0.448,-0.951,1.038,-5.554,-4.456
0.263,0.436,-0.943,2.686,-1.526,-3.662
0.254,0.441,-0.942,1.465,1.282,-0.305
0.234,0.460,-0.964,-1.160,3.052,3.784
0.210,0.479,-0.980,-2.197,3.479,6.531
-0.128,1.120,-1.821,38.330,38.513,35.156
-0.260,1.300,-2.043,45.471,31.860,29.968
-0.386,1.461,-2.278,53.711,20.264,16.785
-0.490,1.582,-2.491,65.002,4.333,-3.357
-0.565,1.611,-2.600,83.557,-13.977,-29.785
-0.586,1.585,-2.631,108.521,-30.334,-57.068
-0.572,1.545,-2.621,135.437,-38.208,-83.252
-0.570,1.414,-2.554,162.659,-42.297,-106.323
-0.584,1.254,-2.434,186.157,-48.462,-125.061
-0.617,1.115,-2.313,200.745,-52.612,-138.245
-0.673,0.963,-2.206,206.909,-56.274,-150.940
-0.756,0.777,-2.132,208.435,-64.514,-164.124
-0.819,0.583,-2.086,208.923,-77.515,-176.758
-0.882,0.432,-2.042,212.097,-92.346,-186.035
-0.965,0.300,-1.956,219.116,-104.614,-194.519
-1.025,0.158,-1.831,229.858,-112.854,-206.543
-1.075,0.009,-1.693,242.615,-117.981,-221.252
-1.084,-0.166,-1.529,254.456,-120.789,-237.122
-1.039,-0.387,-1.345,266.602,-125.916,-255.981
-1.000,-0.600,-1.152,278.809,-136.230,-274.597
-0.937,-0.889,-0.914,287.048,-151.367,-290.466
-0.765,-1.211,-0.650,289.978,-168.823,-300.476
-0.550,-1.413,-0.357,282.043,-187.073,-299.683
-0.359,-1.423,-0.075,266.479,-201.416,-286.072
-0.243,-1.365,0.164,255.249,-203.735,-261.475
-0.178,-1.323,0.319,260.803,-184.692,-232.056
-0.123,-1.251,0.423,281.128,-149.902,-207.458
0.006,-1.247,0.542,305.847,-114.868,-197.815
0.209,-1.353,0.741,320.679,-95.581,-204.773
0.447,-1.473,1.051,312.744,-99.365,-221.313
0.553,-1.630,1.404,278.748,-123.657,-238.281
0.518,-2.016,1.754,230.408,-155.945,-252.075
0.632,-2.570,2.203,178.345,-178.284,-266.663
1.014,-3.006,2.674,128.418,-185.974,-278.503
1.622,-3.122,2.972,77.332,-170.471,-274.536
1.945,-2.998,2.944,26.794,-110.474,-234.009
2.181,-2.847,2.462,-18.494,-6.836,-147.705
2.044,-2.489,1.809,-64.209,74.646,-36.499
1.670,-2.052,1.263,-97.290,114.746,71.594
1.285,-1.622,0.879,-111.267,127.686,152.039
0.954,-1.229,0.646,-115.173,131.165,198.486
0.817,-0.908,0.505,-112.915,132.385,217.346
0.613,-0.686,0.436,-110.229,125.488,218.506
0.631,-0.464,0.436,-111.816,121.338,202.148
0.616,-0.389,0.437,-120.422,106.140,196.594
0.564,-0.332,0.461,-139.282,83.069,189.697
0.531,-0.303,0.470,-161.011,63.904,180.481
0.468,-0.317,0.460,-177.979,55.298,175.842
0.426,-0.318,0.439,-189.331,61.401,171.814
0.377,-0.317,0.385,-196.289,73.425,171.082
0.312,-0.302,0.313,-200.073,84.656,174.683
0.253,-0.277,0.238,-200.623,93.689,180.237
0.175,-0.248,0.187,-199.463,101.013,185.791
0.087,-0.215,0.135,-198.608,106.384,188.782
0.005,-0.181,0.083,-200.073,110.596,188.477
-0.063,-0.152,0.009,-204.773,112.366,185.303
-0.120,-0.144,-0.083,-209.900,110.962,180.237
-0.174,-0.155,-0.180,-214.417,108.948,175.171
-0.233,-0.166,-0.272,-217.468,109.924,171.570
-0.269,-0.161,-0.360,-217.224,117.004,170.776
-0.291,-0.140,-0.455,-213.623,131.348,173.218
-0.300,-0.139,-0.606,-208.069,150.940,181.274
-0.361,-0.028,-0.895,-209.595,172.363,198.059
-0.498,0.194,-1.252,-221.741,185.364,221.619
-0.658,0.469,-1.563,-233.154,177.307,238.098
-0.802,0.726,-1.815,-235.840,150.085,233.582
-0.810,0.978,-1.881,-227.600,119.202,205.811
-0.772,1.046,-1.929,-206.604,83.008,169.189
-0.690,1.017,-1.921,-182.007,66.040,122.009
-0.559,0.954,-1.880,-155.762,62.561,74.036
-0.398,0.811,-1.781,-127.197,64.514,36.377
-0.266,0.733,-1.709,-104.431,69.519,19.836
-0.212,0.786,-1.665,-95.459,81.543,25.024
-0.187,0.901,-1.700,-98.389,97.351,40.771
-0.193,1.005,-1.802,-108.276,106.140,55.603
-0.210,1.104,-1.957,-118.958,101.257,60.120
-0.140,1.126,-2.063,-123.352,81.421,54.199
-0.062,1.072,-2.077,-116.577,55.603,34.058
0.023,0.978,-1.946,-96.985,24.902,7.874
0.087,0.862,-1.700,-68.176,1.404,-13.916
0.123,0.742,-1.436,-38.147,-7.202,-27.771
0.146,0.640,-1.226,-11.780,-4.089,-32.776
0.164,0.566,-1.091,6.714,7.996,-30.457
0.197,0.532,-1.036,13.367,22.583,-23.071
0.201,0.564,-1.034,6.653,30.273,-11.963
0.178,0.603,-1.067,-8.728,28.076,0.061
0.125,0.617,-1.139,-25.208,18.860,9.155
0.086,0.620,-1.214,-35.583,11.230,8.545
0.117,0.618,-1.244,-34.424,6.042,1.953
0.126,0.551,-1.208,-24.048,2.747,-2.686
0.152,0.506,-1.156,-12.085,1.221,-12.085
0.174,0.457,-1.069,-0.549,-0.916,-19.409
0.201,0.416,-0.993,6.531,-0.366,-21.912
0.225,0.381,-0.936,9.705,0.183,-19.714
0.247,0.359,-0.908,7.812,1.709,-15.137
0.258,0.347,-0.923,1.892,3.662,-9.644
0.261,0.355,-0.945,-4.578,3.601,-3.662
0.236,0.386,-0.954,-8.118,1.526,1.404
0.212,0.408,-0.939,-8.484,-0.366,4.272
0.199,0.408,-0.911,-6.714,-0.549,3.906
0.198,0.391,-0.879,-4.883,-0.427,1.526
0.202,0.374,-0.855,-4.089,-1.892,-0.305
0.207,0.356,-0.823,-4.089,-3.296,-0.183
0.202,0.351,-0.790,-4.272,-1.587,0.671
0.211,0.354,-0.767,-4.578,3.174,3.906
0.228,0.336,-0.779,-6.531,9.094,8.606
0.245,0.323,-0.808,-10.803,13.306,14.343
0.242,0.332,-0.855,-14.648,15.930,20.081
0.221,0.369,-0.911,-16.663,17.883,24.231
0.188,0.404,-0.946,-16.479,17.700,25.757
0.169,0.435,-0.951,-14.465,12.878,26.062
0.143,0.468,-0.968,-11.780,10.742,24.658
0.099,0.507,-0.994,-9.094,8.789,20.813
0.068,0.532,-0.992,-5.859,2.380,15.747
0.064,0.528,-0.974,-2.991,-2.380,10.132
0.066,0.506,-0.960,-1.526,-4.700,4.578
0.075,0.492,-0.954,-0.671,-4.456,-0.488
0.097,0.485,-0.949,-0.977,-3.967,-3.357
0.103,0.481,-0.946,-2.197,-4.639,-4.395
-0.210,0.897,-1.876,20.630,45.715,43.030
-0.354,1.038,-2.087,22.461,40.161,41.992
-0.483,1.224,-2.298,24.963,31.311,35.034
-0.589,1.343,-2.440,32.715,14.221,16.968
-0.646,1.353,-2.475,47.607,-11.719,-11.597
-0.670,1.265,-2.427,66.772,-38.818,-44.250
-0.682,1.123,-2.344,88.196,-54.565,-74.341
-0.705,0.990,-2.262,108.154,-54.077,-96.191
-0.724,0.894,-2.186,124.207,-44.678,-109.192
-0.734,0.807,-2.114,135.925,-37.048,-118.530
-0.784,0.675,-2.082,144.836,-38.330,-127.014
-0.817,0.541,-2.072,153.503,-48.645,-131.958
-0.862,0.431,-2.018,166.931,-63.538,-134.277
-0.945,0.338,-1.888,185.059,-77.148,-139.404
-1.024,0.262,-1.808,203.857,-89.417,-151.978
-1.079,0.153,-1.684,218.445,-101.501,-171.021
-1.092,0.030,-1.558,231.384,-117.676,-194.336
-1.084,-0.090,-1.422,243.713,-135.437,-219.299
-1.078,-0.196,-1.267,255.981,-154.785,-244.324
-1.060,-0.371,-1.083,268.372,-176.025,-270.874
-1.011,-0.573,-0.901,281.250,-195.862,-298.401
-0.930,-0.761,-0.693,294.312,-208.984,-321.289
-0.808,-0.937,-0.511,303.467,-215.393,-335.327
-0.698,-1.036,-0.331,304.932,-215.698,-340.393
-0.578,-1.087,-0.184,302.490,-216.064,-338.562
-0.427,-1.100,-0.068,301.147,-215.698,-334.534
-0.279,-1.062,0.025,299.866,-213.196,-330.688
-0.139,-1.036,0.110,298.340,-210.449,-324.646
-0.002,-1.024,0.160,299.133,-208.923,-315.430
0.037,-1.088,0.245,302.979,-208.191,-308.228
0.034,-1.182,0.366,309.143,-207.703,-308.167
0.015,-1.307,0.559,309.265,-206.482,-317.688
-0.064,-1.481,0.766,300.781,-208.252,-334.167
-0.140,-1.742,0.993,283.264,-212.219,-354.126
-0.133,-2.055,1.294,260.071,-216.980,-374.268
-0.059,-2.379,1.662,237.671,-217.346,-385.742
0.326,-2.567,2.045,217.712,-193.115,-381.104
0.697,-2.625,2.203,197.144,-160.706,-352.905
1.014,-2.601,2.258,165.955,-100.037,-305.725
1.310,-2.481,2.166,122.925,-23.010,-246.460
1.545,-2.291,1.959,67.993,35.706,-178.650
1.577,-2.061,1.720,4.395,66.956,-100.769
1.524,-1.880,1.436,-56.885,75.134,-17.456
1.162,-1.713,1.140,-105.652,62.622,57.068
0.979,-1.571,0.922,-136.230,63.354,114.502
0.807,-1.452,0.734,-145.508,75.867,154.480
0.675,-1.351,0.614,-138.306,87.463,182.617
0.570,-1.244,0.584,-127.075,98.572,199.463
0.484,-1.128,0.599,-117.920,107.971,206.177
0.439,-1.023,0.633,-114.807,112.427,209.778
0.411,-0.942,0.681,-120.239,112.366,213.196
0.419,-0.879,0.723,-134.766,111.755,216.858
0.427,-0.834,0.732,-155.823,112.366,221.252
0.428,-0.793,0.708,-180.054,115.112,227.600
0.400,-0.752,0.656,-204.407,121.338,236.206
0.337,-0.710,0.578,-224.976,132.202,245.422
0.266,-0.676,0.459,-241.943,146.362,254.578
0.180,-0.647,0.320,-254.822,159.607,265.137
0.095,-0.611,0.170,-263.550,170.532,275.391
0.019,-0.564,0.041,-267.822,179.016,283.508
-0.056,-0.514,-0.057,-267.029,185.974,289.246
-0.104,-0.471,-0.129,-262.878,193.054,293.152
-0.155,-0.427,-0.181,-258.179,198.181,295.837
-0.197,-0.391,-0.215,-254.700,203.674,297.546
-0.251,-0.357,-0.254,-253.235,209.229,299.683
-0.325,-0.322,-0.321,-254.089,216.125,302.307
-0.410,-0.283,-0.465,-256.653,223.145,306.030
-0.516,-0.201,-0.683,-259.277,227.600,310.486
-0.645,-0.096,-0.881,-259.949,226.990,313.904
-0.783,0.033,-1.050,-255.432,225.281,316.040
-0.901,0.217,-1.243,-251.282,227.173,313.171
-0.985,0.427,-1.524,-250.488,225.464,302.307
-1.031,0.677,-1.761,-251.892,208.191,281.555
-1.008,0.887,-1.906,-243.103,166.809,251.099
-0.956,0.931,-1.918,-223.083,109.619,211.792
-0.951,0.886,-1.855,-198.547,64.026,161.621
-0.944,0.883,-1.777,-172.607,42.419,117.432
-0.887,0.847,-1.731,-146.729,52.063,84.473
-0.766,0.802,-1.748,-126.953,74.341,61.523
-0.616,0.762,-1.839,-118.835,84.900,46.021
-0.455,0.759,-1.963,-123.047,73.914,34.180
-0.311,0.732,-2.021,-131.287,41.443,24.231
-0.220,0.670,-1.955,-133.850,-1.038,11.108
-0.153,0.630,-1.798,-124.268,-34.302,-3.845
-0.100,0.587,-1.611,-100.952,-42.114,-15.747
-0.051,0.512,-1.429,-69.153,-27.771,-22.949
-0.013,0.420,-1.293,-38.574,-3.967,-22.644
0.020,0.380,-1.244,-20.020,20.447,-15.686
0.048,0.401,-1.259,-19.226,36.743,-5.371
0.068,0.426,-1.301,-30.823,37.903,3.357
0.072,0.426,-1.342,-45.105,27.527,7.690
0.081,0.415,-1.386,-54.443,16.418,6.409
0.100,0.398,-1.419,-55.786,9.766,2.197
0.121,0.409,-1.450,-49.683,6.775,-1.648
0.124,0.345,-1.407,-37.537,7.080,3.601
0.133,0.321,-1.340,-24.841,17.151,5.249
0.137,0.312,-1.311,-14.343,14.465,2.747
0.131,0.297,-1.259,-10.376,9.888,2.502
0.104,0.308,-1.258,-9.583,9.949,7.568
0.069,0.352,-1.272,-7.446,14.526,15.259
0.037,0.408,-1.284,-2.930,21.973,19.531
0.017,0.454,-1.301,2.258,26.611,19.714
-0.003,0.476,-1.313,5.615,25.635,17.517
-0.009,0.483,-1.312,7.751,18.860,12.451
-0.011,0.475,-1.258,10.742,6.958,5.981
-0.016,0.463,-1.160,14.038,-5.859,-0.305
-0.021,0.442,-1.062,15.747,-14.954,-4.700
-0.005,0.413,-0.977,15.564,-18.799,-7.996
0.015,0.389,-0.911,14.282,-18.982,-10.803
0.030,0.375,-0.862,12.390,-17.517,-12.817
0.039,0.363,-0.823,10.193,-15.442,-11.963
0.046,0.348,-0.801,7.080,-12.756,-9.155
0.050,0.339,-0.786,4.089,-10.132,-6.592
0.053,0.333,-0.792,2.075,-8.057,-4.944
0.060,0.326,-0.803,1.282,-5.981,-4.028
0.065,0.320,-0.810,1.709,-4.517,-3.174
0.062,0.320,-0.812,2.869,-2.441,-2.625
0.072,0.327,-0.819,2.563,0.427,-2.014
0.085,0.323,-0.833,0.732,2.075,-1.892
-0.415,0.765,-2.156,14.709,47.119,20.752
-0.573,0.948,-2.518,18.433,44.434,20.142
-0.732,1.147,-2.862,26.367,29.541,13.184
-0.825,1.274,-3.060,46.631,-0.244,-5.066
-0.893,1.314,-3.067,80.200,-37.903,-34.729
-0.912,1.250,-2.895,119.934,-70.251,-72.205
-0.875,1.098,-2.645,158.447,-90.393,-112.610
-0.814,0.875,-2.380,190.796,-103.394,-149.414
-0.742,0.642,-2.156,214.294,-111.145,-176.025
-0.676,0.427,-1.968,230.164,-115.845,-191.833
-0.648,0.276,-1.812,239.075,-120.483,-199.219
-0.656,0.200,-1.735,240.662,-127.136,-199.890
-0.716,0.147,-1.665,236.938,-140.564,-197.754
-0.792,0.079,-1.577,235.718,-160.400,-199.036
-0.862,0.031,-1.475,237.854,-178.406,-204.346
-0.924,-0.007,-1.365,243.896,-189.453,-211.670
-0.975,-0.042,-1.232,254.333,-192.261,-221.741
-0.991,-0.116,-1.132,267.151,-194.092,-234.253
-0.990,-0.218,-1.019,278.442,-195.862,-249.268
-0.991,-0.320,-0.901,288.025,-198.975,-266.296
-0.975,-0.434,-0.779,294.678,-201.538,-282.227
-0.941,-0.522,-0.667,297.241,-205.261,-295.166
-0.898,-0.585,-0.572,296.631,-212.280,-304.016
-0.830,-0.645,-0.464,295.654,-220.703,-312.134
-0.723,-0.642,-0.355,295.044,-229.126,-320.068
-0.653,-0.673,-0.205,296.814,-235.657,-324.890
-0.541,-0.770,-0.036,301.758,-236.267,-327.026
-0.374,-0.855,0.129,305.481,-231.140,-328.125
-0.222,-0.939,0.335,304.626,-224.609,-328.979
-0.086,-1.041,0.490,299.744,-218.323,-327.881
-0.005,-1.130,0.671,289.734,-210.449,-322.510
0.005,-1.342,0.844,278.198,-200.378,-314.392
-0.038,-1.642,1.003,263.306,-189.148,-309.692
-0.103,-2.000,1.202,241.516,-185.364,-311.157
-0.129,-2.457,1.485,217.346,-188.293,-315.308
-0.039,-2.924,1.893,196.411,-180.786,-317.932
0.299,-3.154,2.179,175.415,-165.283,-310.730
0.759,-3.231,2.393,146.973,-129.517,-286.560
1.244,-3.080,2.435,105.164,-54.504,-244.629
1.722,-2.817,2.210,49.866,24.353,-186.707
1.855,-2.412,1.799,-16.663,77.332,-106.201
1.679,-2.014,1.344,-83.618,98.450,-5.371
1.309,-1.689,0.927,-129.700,97.046,96.680
0.994,-1.396,0.577,-150.269,87.952,175.049
0.666,-1.123,0.350,-151.245,81.787,216.187
0.479,-0.888,0.229,-135.254,85.144,229.248
0.378,-0.719,0.199,-109.314,82.214,230.713
0.365,-0.612,0.290,-87.524,75.134,222.656
0.383,-0.557,0.445,-77.698,66.711,203.247
0.434,-0.519,0.611,-81.238,60.791,180.237
0.492,-0.513,0.755,-97.412,56.946,164.001
0.584,-0.528,0.847,-121.765,54.443,156.555
0.600,-0.550,0.889,-152.100,55.481,156.799
0.613,-0.552,0.869,-183.105,62.744,162.109
0.585,-0.554,0.804,-209.961,77.942,173.035
0.533,-0.545,0.695,-230.652,95.947,185.486
0.464,-0.531,0.558,-244.690,113.220,198.853
0.378,-0.509,0.411,-252.380,128.601,212.585
0.295,-0.476,0.272,-253.967,141.846,225.830
0.208,-0.427,0.154,-250.183,152.649,237.427
0.142,-0.371,0.061,-242.554,160.706,246.338
0.086,-0.302,-0.000,-233.337,166.077,252.625
0.037,-0.239,-0.037,-224.182,169.128,256.653
0.005,-0.179,-0.075,-217.712,171.875,258.179
-0.025,-0.114,-0.138,-215.393,176.086,258.423
-0.074,-0.046,-0.207,-216.125,179.687,258.362
-0.117,0.005,-0.291,-216.675,181.824,257.874
-0.184,0.071,-0.422,-217.346,184.143,256.470
-0.263,0.196,-0.638,-222.778,185.791,255.676
-0.353,0.370,-0.866,-230.896,180.908,254.150
-0.426,0.518,-1.023,-233.337,165.466,246.155
-0.464,0.635,-1.126,-227.478,141.724,227.356
-0.478,0.716,-1.153,-216.797,115.356,198.975
-0.446,0.708,-1.105,-202.209,90.759,164.246
-0.394,0.632,-1.010,-183.167,75.012,129.883
-0.340,0.528,-0.936,-163.635,77.271,104.675
-0.252,0.465,-0.878,-146.790,98.572,93.384
-0.231,0.391,-0.915,-135.559,118.164,98.816
-0.243,0.369,-1.042,-137.756,132.690,108.826
-0.307,0.483,-1.261,-155.090,133.240,117.676
-0.380,0.591,-1.440,-177.307,113.708,119.934
-0.412,0.658,-1.584,-191.467,81.726,107.178
-0.396,0.722,-1.681,-191.772,53.894,83.008
-0.365,0.720,-1.721,-176.697,38.330,56.396
-0.312,0.652,-1.704,-148.804,34.180,31.860
-0.206,0.553,-1.631,-119.202,37.537,12.634
-0.083,0.474,-1.528,-96.985,41.687,1.648
-0.047,0.463,-1.464,-86.548,39.978,4.456
-0.022,0.463,-1.401,-87.402,43.518,13.184
0.002,0.477,-1.453,-91.858,49.744,20.813
-0.013,0.540,-1.576,-95.520,56.030,28.992
-0.040,0.615,-1.731,-96.375,62.561,36.621
-0.035,0.673,-1.838,-92.041,62.317,37.354
-0.020,0.714,-1.868,-84.045,50.293,31.250
0.008,0.763,-1.870,-74.402,33.508,21.484
0.044,0.672,-1.774,-62.195,20.447,18.738
0.106,0.608,-1.668,-49.133,20.447,8.972
0.126,0.578,-1.594,-34.729,10.986,-2.747
0.135,0.564,-1.534,-24.963,8.118,-6.958
0.177,0.495,-1.449,-19.714,3.662,-7.263
0.158,0.450,-1.354,-12.268,-2.380,-5.798
0.134,0.437,-1.290,-4.761,-0.916,-2.014
0.091,0.431,-1.227,1.770,2.136,2.075
0.070,0.429,-1.170,7.202,4.822,1.221
0.063,0.410,-1.113,9.277,4.150,-1.221
0.061,0.378,-1.053,9.155,-0.244,-3.784
0.056,0.357,-1.001,7.507,-5.249,-5.920
0.053,0.342,-0.941,5.371,-9.583,-6.958
0.049,0.343,-0.896,5.188,-11.536,-7.751
0.054,0.335,-0.861,6.104,-10.376,-7.751
0.079,0.330,-0.836,7.141,-7.080,-6.958
0.101,0.325,-0.811,6.897,-4.639,-5.920
0.119,0.315,-0.789,4.333,-4.150,-4.395
0.133,0.304,-0.792,0.549,-3.723,-2.747
0.147,0.293,-0.809,-3.906,-3.418,-0.793
0.154,0.292,-0.830,-6.287,-3.174,1.709
0.141,0.309,-0.848,-5.798,-0.793,4.456
0.132,0.332,-0.866,-3.967,3.418,5.920
0.131,0.337,-0.882,-3.601,5.371,6.226
-0.339,0.840,-2.222,27.283,34.119,25.024
-0.409,0.964,-2.472,40.894,25.452,17.456
-0.452,1.064,-2.621,59.692,8.118,-0.916
-0.482,1.085,-2.652,82.581,-16.907,-26.672
-0.466,1.025,-2.592,107.361,-43.274,-56.335
-0.441,0.917,-2.485,130.798,-65.857,-84.778
-0.388,0.822,-2.368,150.696,-82.581,-105.530
-0.327,0.745,-2.250,170.227,-91.492,-119.324
-0.307,0.662,-2.146,190.857,-94.177,-128.235
-0.308,0.602,-2.056,209.167,-94.177,-130.859
-0.328,0.566,-1.971,223.999,-94.849,-130.188
-0.381,0.552,-1.875,235.107,-99.060,-129.333
-0.452,0.486,-1.763,242.065,-107.300,-131.287
-0.519,0.422,-1.679,245.667,-117.432,-135.864
-0.605,0.376,-1.606,246.765,-127.563,-141.174
-0.691,0.347,-1.530,248.474,-138.550,-146.545
-0.766,0.332,-1.500,250.854,-149.292,-153.992
-0.834,0.273,-1.442,252.930,-161.987,-165.161
-0.906,0.166,-1.350,259.460,-177.673,-182.678
-0.953,0.018,-1.220,271.057,-194.885,-202.148
-0.976,-0.123,-1.079,282.288,-202.576,-220.825
-0.996,-0.259,-0.965,290.527,-204.773,-238.892
-0.967,-0.318,-0.846,294.067,-207.031,-251.465
-0.968,-0.359,-0.678,294.800,-212.585,-259.033
-0.965,-0.408,-0.496,297.974,-218.567,-266.907
-0.923,-0.432,-0.324,301.147,-220.032,-275.452
-0.806,-0.504,-0.139,304.504,-216.187,-283.386
-0.660,-0.561,-0.028,306.946,-209.839,-287.903
-0.575,-0.602,0.107,304.993,-205.017,-288.147
-0.523,-0.668,0.244,304.382,-200.378,-288.147
-0.497,-0.776,0.356,310.242,-191.101,-290.771
-0.470,-0.953,0.473,320.801,-175.903,-298.401
-0.377,-1.154,0.630,331.238,-159.607,-311.829
-0.384,-1.494,0.863,334.595,-151.001,-330.994
-0.443,-1.963,1.160,320.801,-155.457,-353.027
-0.460,-2.481,1.584,288.452,-171.631,-375.977
-0.512,-3.132,2.029,249.573,-186.768,-396.484
-0.030,-3.541,2.500,205.017,-180.298,-403.564
0.797,-3.853,2.639,161.743,-154.358,-380.737
1.375,-3.675,2.524,109.619,-70.251,-332.336
1.731,-3.304,2.131,56.702,27.832,-248.901
1.950,-2.834,1.604,5.798,96.069,-143.982
1.957,-2.352,1.147,-38.086,116.089,-32.593
1.639,-1.929,0.858,-67.627,101.685,84.717
1.190,-1.582,0.661,-81.116,82.886,194.214
0.882,-1.221,0.514,-82.581,73.669,268.066
0.503,-0.950,0.447,-75.317,65.552,299.805
0.219,-0.685,0.456,-67.322,59.387,291.992
0.142,-0.476,0.500,-62.744,63.171,267.700
0.170,-0.358,0.561,-63.477,61.401,240.417
0.205,-0.312,0.648,-74.646,54.016,210.999
0.241,-0.323,0.744,-94.910,49.194,178.467
0.316,-0.309,0.819,-118.713,52.917,147.827
0.403,-0.337,0.837,-140.869,57.251,130.310
0.464,-0.366,0.815,-161.926,60.181,124.512
0.474,-0.393,0.769,-181.946,64.697,126.831
0.497,-0.421,0.688,-199.158,73.486,133.118
0.468,-0.409,0.588,-212.219,83.252,140.198
0.484,-0.399,0.507,-220.337,93.933,150.513
0.462,-0.397,0.432,-223.999,104.736,164.795
0.413,-0.396,0.369,-224.976,115.479,179.626
0.345,-0.388,0.292,-225.586,128.662,194.885
0.302,-0.366,0.185,-227.966,141.724,210.205
0.241,-0.332,0.090,-231.201,150.513,223.816
0.180,-0.298,0.014,-234.070,156.555,234.619
0.134,-0.258,-0.083,-236.511,160.828,243.958
0.114,-0.190,-0.182,-237.610,164.001,253.296
0.056,-0.106,-0.266,-236.755,167.969,263.733
-0.034,-0.027,-0.334,-232.605,173.889,273.804
-0.138,0.025,-0.412,-226.013,180.481,281.616
-0.213,0.079,-0.492,-220.093,183.899,285.828
-0.281,0.133,-0.574,-217.651,180.603,283.936
-0.338,0.201,-0.655,-219.910,172.180,275.757
-0.382,0.275,-0.749,-225.708,160.156,263.428
-0.441,0.388,-0.905,-232.605,148.682,250.244
-0.498,0.544,-1.091,-240.234,140.564,235.291
-0.529,0.684,-1.284,-243.042,121.582,219.238
-0.531,0.729,-1.329,-236.755,94.666,195.312
-0.508,0.731,-1.344,-222.046,72.388,159.485
-0.493,0.739,-1.350,-201.782,61.890,123.169
-0.438,0.678,-1.343,-181.641,65.308,93.323
-0.350,0.617,-1.335,-166.443,72.937,73.853
-0.316,0.583,-1.338,-158.997,77.148,66.895
-0.269,0.559,-1.394,-158.936,81.299,66.650
-0.228,0.564,-1.507,-164.368,82.581,68.115
-0.210,0.612,-1.625,-169.861,75.073,68.298
-0.189,0.592,-1.686,-165.588,59.937,63.110
-0.155,0.541,-1.673,-146.667,46.753,53.589
-0.173,0.581,-1.653,-119.324,49.438,49.500
-0.213,0.639,-1.630,-95.398,67.078,51.514
-0.216,0.699,-1.629,-83.191,78.674,52.979
-0.219,0.787,-1.663,-86.609,71.838,52.734
-0.211,0.857,-1.697,-98.816,54.016,50.354
-0.174,0.844,-1.717,-107.971,33.386,41.504
-0.099,0.794,-1.731,-109.924,13.367,28.259
0.062,0.739,-1.749,-106.567,-3.967,14.282
0.098,0.610,-1.709,-94.055,-17.700,11.475
0.184,0.510,-1.522,-73.120,-12.451,12.573
0.180,0.496,-1.497,-45.959,0.427,10.254
0.161,0.500,-1.454,-22.827,22.583,14.465
0.154,0.535,-1.455,-10.864,41.870,19.592
0.112,0.564,-1.428,-7.751,40.527,26.306
0.051,0.579,-1.401,-10.559,28.809,32.349
-0.007,0.585,-1.365,-12.756,15.381,31.494
-0.037,0.589,-1.301,-10.742,3.418,23.560
-0.051,0.580,-1.193,-3.662,-7.629,12.695
-0.057,0.549,-1.048,4.822,-17.212,1.160
-0.038,0.495,-0.925,10.193,-23.437,-8.789
-0.002,0.424,-0.837,12.451,-24.719,-15.442
0.035,0.354,-0.769,12.939,-21.667,-17.700
0.063,0.309,-0.730,11.658,-15.808,-15.320
0.073,0.307,-0.711,7.385,-9.399,-9.583
0.060,0.329,-0.717,1.953,-3.967,-3.967
0.048,0.352,-0.742,-3.845,0.061,-0.977
0.058,0.369,-0.768,-7.874,1.099,-0.183
0.064,0.370,-0.778,-8.911,0.427,0.122
0.066,0.359,-0.789,-7.629,1.160,0.000
0.072,0.347,-0.804,-6.104,3.784,0.122
0.070,0.343,-0.835,-5.554,7.751,1.282
-0.232,0.764,-1.807,30.701,14.832,3.418
-0.263,0.817,-1.913,40.955,11.475,-0.916
-0.284,0.834,-1.991,50.964,4.822,-7.874
-0.289,0.797,-2.041,60.547,-5.737,-16.968
-0.279,0.752,-2.073,67.871,-18.494,-24.170
-0.281,0.737,-2.099,72.571,-29.480,-25.146
-0.298,0.752,-2.129,75.684,-37.354,-21.057
-0.333,0.805,-2.152,81.909,-43.640,-15.259
-0.395,0.870,-2.125,95.215,-47.607,-12.451
-0.479,0.906,-2.066,115.540,-48.279,-16.785
-0.550,0.899,-2.014,140.259,-45.715,-28.015
-0.623,0.847,-1.972,165.405,-41.870,-45.715
-0.666,0.775,-1.919,189.453,-42.175,-67.932
-0.693,0.669,-1.833,208.801,-51.819,-93.323
-0.717,0.540,-1.735,220.154,-72.205,-119.019
-0.731,0.391,-1.624,226.135,-98.022,-142.456
-0.722,0.248,-1.515,230.896,-119.080,-160.706
-0.689,0.148,-1.392,235.596,-132.263,-173.218
-0.683,0.100,-1.278,239.990,-141.296,-182.312
-0.699,0.050,-1.181,247.253,-147.583,-189.453
-0.711,0.012,-1.094,257.019,-149.292,-196.228
-0.712,-0.023,-0.998,266.907,-147.034,-204.956
-0.712,-0.065,-0.896,274.597,-145.752,-216.797
-0.712,-0.116,-0.803,278.870,-148.010,-229.431
-0.695,-0.129,-0.717,280.029,-151.306,-240.417
-0.660,-0.214,-0.636,279.541,-155.762,-251.892
-0.598,-0.262,-0.543,276.917,-163.147,-263.794
-0.537,-0.319,-0.388,272.400,-175.354,-275.818
-0.455,-0.424,-0.206,269.043,-189.453,-286.560
-0.316,-0.525,-0.009,263.977,-199.463,-292.847
-0.146,-0.646,0.177,259.460,-201.843,-289.978
0.025,-0.701,0.336,257.874,-191.833,-281.128
0.139,-0.736,0.462,258.179,-172.485,-270.264
0.251,-0.722,0.535,259.949,-146.057,-255.920
0.320,-0.728,0.571,262.024,-116.821,-241.394
0.352,-0.751,0.600,260.620,-98.083,-231.140
0.330,-0.801,0.643,252.930,-98.328,-227.600
0.245,-0.929,0.735,238.892,-114.868,-233.276
0.203,-1.111,0.917,221.375,-140.808,-248.901
0.134,-1.362,1.223,204.407,-164.734,-272.217
0.250,-1.680,1.495,191.223,-178.772,-294.617
0.457,-1.950,1.772,176.392,-182.373,-306.702
0.752,-2.098,1.936,152.527,-154.175,-303.223
1.070,-2.120,1.916,121.094,-104.248,-278.320
1.378,-2.021,1.796,83.984,-51.575,-232.239
1.587,-1.842,1.625,45.349,-10.010,-169.312
1.615,-1.601,1.383,10.437,12.451,-91.003
1.463,-1.362,1.146,-17.395,18.616,-5.066
1.199,-1.141,0.967,-33.691,18.433,69.336
0.969,-0.944,0.880,-41.626,23.071,117.493
0.843,-0.786,0.815,-44.861,28.625,142.090
0.605,-0.676,0.800,-48.645,31.189,148.621
0.591,-0.552,0.831,-54.382,45.166,138.489
0.564,-0.522,0.839,-60.059,50.110,133.728
0.539,-0.507,0.893,-70.862,46.143,127.258
0.582,-0.497,0.949,-85.510,45.776,119.995
0.576,-0.513,0.963,-101.746,45.166,116.394
0.595,-0.504,0.978,-118.713,47.729,114.502
0.615,-0.506,0.958,-134.155,57.129,116.943
0.608,-0.498,0.874,-149.048,67.627,121.826
0.622,-0.476,0.779,-163.452,73.364,130.371
0.605,-0.441,0.686,-176.208,75.378,140.564
0.581,-0.401,0.610,-185.425,77.209,150.940
0.549,-0.365,0.552,-189.880,82.275,161.377
0.508,-0.322,0.509,-191.345,91.553,171.021
0.457,-0.275,0.463,-193.054,103.577,179.565
0.410,-0.222,0.424,-197.449,114.746,187.195
0.349,-0.175,0.385,-204.224,123.901,192.993
0.289,-0.128,0.337,-213.623,132.385,196.777
0.220,-0.104,0.236,-224.304,140.137,199.768
0.175,-0.083,0.080,-232.056,145.447,204.468
0.157,-0.039,-0.062,-232.178,149.292,210.632
0.125,0.025,-0.152,-224.548,153.442,215.881
0.074,0.082,-0.207,-212.402,157.837,219.055
0.041,0.130,-0.246,-202.454,162.476,221.069
0.007,0.164,-0.268,-197.205,164.978,221.741
-0.047,0.181,-0.296,-199.036,164.124,221.130
-0.095,0.193,-0.340,-207.520,158.691,218.811
-0.131,0.183,-0.417,-218.689,148.376,215.027
-0.152,0.183,-0.512,-226.685,138.367,213.074
-0.212,0.237,-0.613,-228.882,135.925,214.844
-0.291,0.308,-0.695,-227.600,140.625,216.675
-0.344,0.363,-0.782,-225.159,144.592,213.989
-0.412,0.451,-0.946,-224.182,145.264,207.153
-0.470,0.585,-1.183,-228.027,140.930,197.144
-0.471,0.695,-1.352,-230.530,122.437,179.016
-0.481,0.732,-1.444,-220.703,91.736,153.442
-0.505,0.789,-1.492,-205.322,60.364,130.432
-0.535,0.833,-1.500,-197.083,46.387,103.699
-0.516,0.812,-1.495,-188.782,35.889,75.012
-0.488,0.811,-1.497,-177.368,29.114,50.293
-0.447,0.787,-1.534,-165.894,31.860,32.715
-0.348,0.734,-1.579,-155.457,37.231,19.409
-0.231,0.659,-1.598,-145.508,34.668,7.935
-0.154,0.630,-1.594,-135.071,26.611,1.465
-0.126,0.637,-1.588,-126.282,22.766,-0.671
-0.070,0.625,-1.576,-119.202,20.874,-4.456
-0.010,0.600,-1.525,-110.962,13.977,-11.780
0.036,0.563,-1.455,-101.013,4.700,-17.578
0.083,0.495,-1.372,-93.079,0.061,-21.118
0.144,0.413,-1.292,-88.562,-3.540,-24.170
0.192,0.359,-1.208,-84.534,-7.141,-23.926
0.208,0.315,-1.155,-77.576,-3.662,-19.287
0.212,0.290,-1.131,-68.909,10.071,-11.597
0.223,0.270,-1.126,-62.073,24.597,-4.089
0.224,0.283,-1.138,-60.242,31.738,3.296
0.216,0.304,-1.160,-62.317,31.494,9.521
0.229,0.300,-1.181,-64.880,27.771,11.414
0.233,0.349,-1.200,-65.857,21.545,10.254
0.254,0.268,-1.210,-64.087,16.846,18.555
0.286,0.239,-1.212,-59.387,25.024,21.240
0.269,0.243,-1.243,-50.293,24.109,20.752
0.241,0.250,-1.268,-43.396,28.931,21.423
0.222,0.271,-1.315,-38.391,38.513,24.292
0.178,0.332,-1.374,-32.959,42.542,32.837
0.120,0.405,-1.453,-27.405,45.898,45.227
0.039,0.490,-1.536,-20.142,48.950,51.880
-0.017,0.565,-1.604,-13.123,47.791,48.218
-0.057,0.607,-1.614,-5.615,37.292,37.659
-0.480,0.772,-2.160,31.921,48.950,23.865
-0.660,1.027,-2.542,41.809,57.129,25.574
-0.831,1.287,-2.857,56.458,54.688,15.442
-0.949,1.417,-3.019,75.073,32.593,-11.963
-0.971,1.432,-3.035,96.863,-3.601,-51.331
-0.917,1.310,-2.926,120.728,-43.091,-93.811
-0.808,1.143,-2.737,145.813,-74.890,-131.653
-0.702,0.942,-2.498,173.279,-94.666,-162.354
-0.612,0.694,-2.239,200.012,-106.079,-185.181
-0.545,0.483,-2.012,222.351,-111.084,-197.266
-0.501,0.309,-1.816,239.868,-109.558,-199.280
-0.473,0.177,-1.708,253.357,-104.309,-195.862
-0.531,0.129,-1.615,260.498,-100.220,-188.049
-0.599,0.118,-1.536,266.357,-99.487,-179.382
-0.692,0.095,-1.484,272.339,-98.633,-176.392
-0.786,0.118,-1.426,276.489,-96.252,-176.636
-0.840,0.112,-1.354,279.297,-94.910,-181.641
-0.917,0.058,-1.282,279.053,-103.088,-191.833
-0.957,-0.004,-1.173,275.696,-118.286,-206.421
-0.977,-0.080,-1.083,271.179,-133.606,-224.182
-0.990,-0.210,-0.950,270.081,-151.428,-245.056
-0.971,-0.403,-0.770,275.146,-169.678,-269.043
-0.883,-0.664,-0.586,283.997,-181.824,-293.518
-0.647,-0.949,-0.403,287.476,-188.049,-315.918
-0.302,-1.202,-0.194,279.907,-196.228,-327.087
0.050,-1.362,0.051,265.320,-206.604,-322.449
0.315,-1.354,0.320,248.596,-209.656,-302.490
0.444,-1.315,0.530,239.014,-193.420,-267.395
0.572,-1.347,0.640,237.610,-153.625,-229.126
0.758,-1.396,0.720,235.352,-108.582,-201.904
0.939,-1.379,0.795,222.290,-81.482,-185.730
1.037,-1.371,0.901,194.885,-81.238,-173.645
1.064,-1.392,0.962,157.227,-100.647,-163.940
1.029,-1.387,1.029,114.624,-130.371,-158.447
0.936,-1.404,1.185,79.346,-163.025,-160.583
0.865,-1.479,1.442,58.777,-184.937,-170.593
0.957,-1.536,1.684,50.964,-181.885,-179.443
1.069,-1.392,1.747,50.842,-146.973,-175.598
1.067,-1.167,1.567,53.101,-84.595,-153.015
1.113,-0.914,1.279,53.040,-26.550,-117.126
1.128,-0.682,1.100,48.462,-6.042,-76.660
1.083,-0.439,1.065,35.767,-2.502,-41.565
1.026,-0.264,1.029,18.311,-0.244,-12.573
0.966,-0.139,0.936,-0.488,6.592,9.949
0.898,-0.066,0.814,-15.015,12.695,29.175
0.851,-0.089,0.740,-23.315,15.625,42.542
0.854,-0.206,0.751,-27.161,15.564,48.401
0.871,-0.355,0.845,-30.212,15.198,50.110
0.882,-0.494,0.957,-37.170,19.592,53.223
0.942,-0.595,1.009,-49.011,26.855,61.523
0.859,-0.656,1.049,-65.125,35.828,72.510
0.893,-0.667,1.037,-83.923,50.293,82.642
0.865,-0.696,0.979,-102.661,59.753,101.746
0.812,-0.681,0.914,-121.704,64.087,119.263
0.756,-0.647,0.818,-138.184,71.655,135.986
0.699,-0.591,0.712,-150.879,81.421,153.259
0.638,-0.516,0.598,-160.889,91.553,167.908
0.577,-0.434,0.479,-169.312,99.304,178.833
0.521,-0.356,0.360,-177.673,103.394,186.707
0.460,-0.277,0.251,-185.242,104.065,191.162
0.398,-0.205,0.158,-191.101,102.661,192.688
0.342,-0.142,0.076,-195.801,100.952,190.247
0.294,-0.085,0.012,-201.172,98.267,184.204
0.278,-0.050,-0.024,-205.811,94.421,175.964
0.280,-0.037,-0.042,-207.642,93.140,167.786
0.287,-0.060,-0.109,-206.421,97.229,163.757
0.283,-0.080,-0.191,-202.637,107.544,165.894
0.291,-0.062,-0.315,-195.801,123.596,174.011
0.221,0.019,-0.437,-187.439,135.864,188.416
0.103,0.131,-0.522,-180.237,141.479,201.660
-0.001,0.237,-0.586,-178.162,138.977,206.909
-0.066,0.322,-0.629,-181.335,127.197,201.599
-0.105,0.372,-0.666,-187.317,109.985,186.951
-0.133,0.395,-0.726,-191.162,94.116,168.518
-0.155,0.398,-0.778,-185.120,89.050,152.893
-0.172,0.386,-0.852,-168.701,100.891,141.907
-0.152,0.401,-0.986,-151.978,119.812,138.000
-0.245,0.488,-1.112,-145.752,125.305,149.902
-0.371,0.649,-1.225,-153.015,126.099,159.302
-0.446,0.795,-1.326,-166.199,117.859,156.494
-0.451,0.902,-1.442,-179.749,96.497,140.381
-0.405,0.931,-1.531,-187.561,67.871,114.685
-0.316,0.864,-1.533,-183.105,42.358,83.740
-0.210,0.758,-1.464,-165.405,27.588,55.786
-0.143,0.681,-1.373,-140.259,29.663,39.368
-0.092,0.638,-1.285,-114.746,48.340,34.973
-0.084,0.641,-1.275,-97.717,66.528,39.978
-0.072,0.659,-1.257,-96.375,73.853,49.622
-0.071,0.701,-1.301,-108.032,67.383,52.368
-0.041,0.716,-1.344,-123.718,49.805,49.377
-0.009,0.705,-1.381,-133.545,31.006,41.870
0.040,0.657,-1.413,-133.545,14.771,30.762
0.067,0.589,-1.363,-119.751,4.639,20.569
0.053,0.557,-1.263,-94.116,9.155,16.357
0.013,0.564,-1.195,-67.749,30.640,19.287
-0.014,0.604,-1.174,-51.575,52.612,24.231
0.011,0.636,-1.215,-51.208,57.800,26.733
0.032,0.654,-1.316,-62.683,46.387,27.588
0.063,0.666,-1.398,-76.355,32.898,26.672
0.094,0.724,-1.531,-82.642,30.334,24.231
0.122,0.657,-1.652,-78.491,30.151,30.151
0.173,0.640,-1.736,-66.040,33.264,28.564
0.171,0.640,-1.766,-45.288,25.879,16.479
0.205,0.631,-1.703,-25.330,22.522,7.446
0.201,0.605,-1.604,-12.695,10.620,4.089
0.167,0.565,-1.435,-5.615,-5.676,1.038
0.155,0.518,-1.254,-1.526,-17.151,-3.967
0.128,0.469,-1.083,2.319,-22.095,-7.202
0.099,0.420,-0.937,6.042,-22.400,-7.935
0.060,0.385,-0.836,8.850,-18.921,-6.165
0.020,0.380,-0.766,10.620,-11.536,-2.930
-0.018,0.403,-0.721,10.010,-3.479,0.183
-0.005,0.411,-0.714,6.042,1.221,2.441
-0.021,0.415,-0.751,-0.366,0.122,1.587
0.047,0.398,-0.797,-6.104,1.160,0.916
0.077,0.388,-0.842,-8.728,1.221,1.465
0.112,0.385,-0.874,-7.202,1.343,1.648
0.143,0.399,-0.911,-4.761,4.883,1.831
0.165,0.408,-0.955,-2.258,9.644,2.625
-0.364,0.801,-2.105,-17.761,-5.737,85.876
-0.442,0.891,-2.278,7.446,-4.517,75.500
-0.516,0.981,-2.441,38.757,-1.953,58.105
-0.559,1.069,-2.582,68.115,-3.967,35.339
-0.595,1.092,-2.675,93.323,-13.733,9.399
-0.638,1.040,-2.747,116.089,-30.457,-16.296
-0.655,0.918,-2.766,136.780,-52.307,-39.612
-0.660,0.790,-2.703,158.325,-73.486,-61.523
-0.657,0.647,-2.553,182.678,-91.309,-82.886
-0.661,0.486,-2.367,210.632,-102.600,-101.196
-0.686,0.364,-2.191,239.136,-105.164,-113.220
-0.748,0.255,-2.034,265.930,-101.563,-122.803
-0.824,0.119,-1.907,290.527,-98.511,-136.292
-0.883,-0.051,-1.804,310.486,-99.487,-152.710
-0.915,-0.206,-1.703,323.303,-106.873,-169.495
-0.926,-0.288,-1.552,329.407,-122.192,-185.852
-0.940,-0.399,-1.315,333.862,-148.987,-206.055
-0.963,-0.535,-1.043,337.341,-184.570,-229.675
-0.957,-0.721,-0.756,339.539,-215.698,-251.831
-0.928,-0.885,-0.496,339.050,-232.727,-269.958
-0.858,-0.940,-0.253,335.632,-234.436,-279.541
-0.728,-1.002,-0.037,336.121,-220.947,-280.029
-0.561,-0.976,0.160,339.905,-194.580,-274.475
-0.433,-0.873,0.351,342.041,-162.292,-263.489
-0.274,-0.798,0.459,341.980,-129.211,-253.296
-0.111,-0.685,0.518,337.524,-98.328,-244.629
0.036,-0.635,0.568,331.055,-76.538,-235.962
0.122,-0.629,0.602,322.021,-62.622,-230.774
0.229,-0.673,0.622,311.646,-55.176,-230.530
0.316,-0.760,0.639,301.697,-51.270,-236.572
0.410,-0.957,0.760,287.964,-52.795,-250.549
0.519,-1.200,1.006,264.038,-68.481,-270.386
0.624,-1.538,1.349,228.088,-99.792,-292.236
0.757,-2.044,1.771,188.782,-134.827,-307.007
1.036,-2.506,2.231,147.339,-153.687,-307.861
1.405,-2.726,2.594,104.858,-136.353,-285.706
1.719,-2.922,2.536,63.293,-95.703,-233.032
1.896,-2.809,2.384,17.334,-43.701,-149.170
1.910,-2.599,2.109,-29.968,6.348,-46.631
1.631,-2.248,1.826,-70.740,45.471,54.382
1.272,-1.884,1.505,-95.764,76.111,135.681
1.000,-1.492,1.229,-113.953,97.107,190.735
0.762,-1.140,1.045,-130.066,104.126,224.182
0.660,-0.866,0.833,-145.447,97.534,243.042
0.417,-0.674,0.698,-160.828,89.050,245.300
0.417,-0.477,0.585,-175.476,86.487,229.797
0.401,-0.400,0.484,-184.814,80.017,221.130
0.383,-0.316,0.418,-193.787,70.129,205.994
0.373,-0.250,0.371,-202.393,64.514,189.636
0.377,-0.189,0.307,-208.801,60.547,180.603
0.324,-0.147,0.245,-214.539,56.885,174.866
0.311,-0.121,0.186,-218.018,57.068,167.664
0.294,-0.122,0.111,-219.482,59.631,160.828
0.284,-0.099,0.029,-221.619,60.059,153.687
0.265,-0.059,-0.034,-223.938,58.472,148.926
0.227,-0.030,-0.090,-221.619,56.824,146.179
0.178,-0.004,-0.146,-215.759,59.814,143.127
0.138,0.029,-0.227,-207.397,65.796,139.404
0.082,0.071,-0.309,-196.411,74.219,136.902
0.050,0.064,-0.396,-183.960,85.999,134.583
0.049,0.053,-0.479,-173.462,98.145,133.423
0.050,0.123,-0.567,-170.715,107.239,137.085
-0.024,0.224,-0.657,-178.101,109.924,149.048
-0.130,0.331,-0.755,-190.186,104.126,162.903
-0.229,0.440,-0.833,-201.477,94.055,168.152
-0.250,0.490,-0.908,-208.313,83.862,161.499
-0.248,0.510,-1.019,-202.209,81.787,150.696
-0.272,0.625,-1.096,-183.167,98.511,143.127
-0.299,0.703,-1.197,-157.349,116.394,143.005
-0.353,0.748,-1.225,-133.362,126.404,143.250
-0.378,0.826,-1.259,-121.765,135.071,135.376
-0.369,0.916,-1.320,-128.479,131.775,123.962
-0.340,0.975,-1.394,-149.597,107.605,110.596
-0.292,1.036,-1.451,-169.312,72.815,95.398
-0.272,1.042,-1.475,-176.086,46.753,78.918
-0.248,1.029,-1.501,-168.945,36.072,57.434
-0.164,0.960,-1.434,-150.024,33.752,40.894
-0.138,0.942,-1.390,-126.709,44.006,29.846
-0.119,0.918,-1.366,-105.408,57.983,24.536
-0.034,0.865,-1.365,-94.666,64.819,22.217
0.040,0.826,-1.352,-93.750,56.580,21.484
0.078,0.840,-1.345,-98.389,44.312,22.949
0.094,0.852,-1.374,-104.187,35.217,26.245
0.084,0.859,-1.398,-104.492,28.076,27.466
0.075,0.861,-1.394,-98.083,20.569,23.193
0.085,0.829,-1.356,-88.928,13.123,13.977
0.122,0.758,-1.265,-79.468,4.578,3.540
0.152,0.649,-1.165,-69.824,-4.272,-4.822
0.199,0.536,-1.067,-61.462,-7.141,-8.606
0.248,0.474,-1.013,-56.519,-0.061,-5.127
0.245,0.485,-1.014,-53.528,12.329,6.836
0.200,0.607,-1.119,-51.941,27.039,23.682
0.164,0.612,-1.230,-49.988,33.569,40.039
0.084,0.721,-1.275,-48.828,36.621,44.128
0.077,0.773,-1.325,-46.387,29.846,33.630
0.071,0.760,-1.301,-41.504,19.653,21.790
0.098,0.698,-1.272,-34.729,6.836,10.559
0.114,0.638,-1.180,-27.771,-4.639,-1.038
0.138,0.564,-1.080,-22.583,-12.329,-11.963
0.171,0.510,-0.996,-20.386,-17.639,-18.372
0.177,0.500,-0.956,-19.958,-16.663,-15.625
0.178,0.515,-0.985,-18.921,-7.568,-6.531
0.143,0.543,-1.027,-17.090,3.113,3.052
0.135,0.551,-1.100,-12.817,10.681,7.568
0.132,0.560,-1.117,-8.728,9.888,5.737
0.112,0.545,-1.050,-4.272,1.465,0.610
0.158,0.481,-1.000,0.549,-4.822,-5.554
0.187,0.438,-0.936,4.150,-8.301,-10.254
0.213,0.392,-0.894,5.981,-9.399,-11.047
0.227,0.368,-0.862,7.141,-7.568,-9.155
0.211,0.377,-0.817,7.507,-3.662,-5.737
0.181,0.387,-0.823,7.507,1.282,-2.869
0.195,0.396,-0.826,5.981,3.479,-0.977
0.175,0.409,-0.813,3.235,1.160,0.610
0.167,0.420,-0.809,1.282,-0.610,0.977
0.175,0.426,-0.804,0.610,-0.122,0.000
0.187,0.427,-0.802,0.549,-0.244,-0.732
0.192,0.430,-0.809,-0.366,-0.732,-0.671
0.190,0.433,-0.840,-2.563,0.061,0.061
-0.028,0.917,-1.936,30.212,5.737,9.338
-0.107,1.075,-2.124,48.889,9.705,10.986
-0.258,1.312,-2.278,72.388,17.151,13.794
-0.399,1.505,-2.352,96.497,21.423,5.859
-0.509,1.592,-2.394,116.150,10.803,-17.639
-0.550,1.585,-2.391,126.709,-14.832,-53.040
-0.518,1.460,-2.308,133.789,-49.988,-93.811
-0.430,1.256,-2.170,143.005,-84.839,-130.798
-0.344,1.043,-2.039,157.288,-106.506,-155.273
-0.289,0.888,-1.946,177.856,-109.497,-163.818
-0.307,0.821,-1.889,201.233,-98.206,-159.790
-0.357,0.797,-1.878,223.633,-82.458,-151.306
-0.440,0.753,-1.845,243.347,-74.036,-149.353
-0.511,0.676,-1.810,257.690,-78.125,-156.799
-0.603,0.603,-1.751,265.625,-91.309,-169.128
-0.684,0.533,-1.679,271.484,-104.309,-183.350
-0.748,0.478,-1.639,277.039,-112.610,-199.097
-0.847,0.412,-1.598,281.921,-121.826,-214.722
-0.914,0.288,-1.541,286.865,-136.780,-233.887
-0.970,0.149,-1.503,292.786,-152.039,-254.944
-1.016,0.038,-1.442,300.171,-161.377,-274.292
-1.052,-0.067,-1.299,308.594,-167.542,-293.274
-1.050,-0.274,-1.134,319.153,-176.453,-311.768
-1.042,-0.497,-0.949,328.186,-180.725,-329.407
-1.035,-0.695,-0.762,328.857,-181.763,-347.229
-0.962,-0.931,-0.564,323.425,-185.303,-363.342
-0.732,-1.169,-0.318,314.941,-190.308,-373.413
-0.488,-1.275,-0.089,304.626,-192.261,-372.131
-0.325,-1.274,0.084,298.218,-184.448,-356.873
-0.173,-1.257,0.211,298.523,-163.025,-330.261
-0.055,-1.241,0.261,306.580,-132.568,-301.270
-0.037,-1.303,0.296,316.833,-107.117,-279.114
-0.078,-1.429,0.423,321.350,-96.252,-271.057
-0.167,-1.667,0.623,314.026,-99.182,-276.245
-0.278,-2.136,0.850,287.598,-112.671,-290.283
-0.368,-2.760,1.195,246.826,-135.437,-311.523
-0.237,-3.374,1.698,201.416,-158.325,-330.261
0.132,-3.912,2.167,153.198,-158.936,-330.750
1.000,-4.000,2.642,98.022,-121.460,-302.185
1.665,-4.000,2.736,25.208,-76.477,-242.065
1.938,-3.438,2.272,-48.767,-8.545,-169.678
1.737,-2.699,1.490,-107.178,66.223,-70.496
1.493,-2.123,0.829,-137.146,119.202,44.983
1.247,-1.647,0.493,-149.475,126.587,152.710
0.878,-1.255,0.341,-145.325,98.755,236.267
0.495,-0.945,0.301,-121.521,68.542,282.288
0.247,-0.696,0.357,-96.436,61.584,292.847
0.117,-0.524,0.444,-79.529,65.674,279.724
0.080,-0.431,0.580,-75.439,64.453,252.197
0.108,-0.406,0.735,-86.792,54.321,217.957
0.147,-0.441,0.863,-111.694,43.945,185.059
0.227,-0.482,0.939,-143.677,43.091,157.043
0.318,-0.539,0.947,-175.110,48.767,138.977
0.379,-0.598,0.891,-202.332,58.472,131.165
0.452,-0.641,0.764,-225.769,68.481,134.583
0.440,-0.659,0.573,-243.164,75.867,147.461
0.467,-0.666,0.428,-250.000,82.458,165.466
0.446,-0.657,0.324,-244.263,92.957,186.829
0.404,-0.623,0.261,-231.812,109.863,207.397
0.323,-0.562,0.198,-220.459,128.296,227.051
0.218,-0.487,0.107,-215.332,142.334,244.812
0.120,-0.391,0.018,-217.529,146.240,258.545
0.023,-0.306,-0.038,-224.487,141.907,265.503
-0.063,-0.247,-0.067,-234.985,135.864,264.587
-0.107,-0.214,-0.117,-247.742,131.470,256.226
-0.116,-0.209,-0.223,-260.071,127.136,245.728
-0.116,-0.197,-0.334,-268.494,122.803,237.854
-0.123,-0.200,-0.431,-270.935,122.192,233.459
-0.123,-0.193,-0.510,-267.639,126.953,232.056
-0.114,-0.164,-0.586,-263.977,137.085,235.046
-0.169,-0.137,-0.649,-261.963,145.935,243.164
-0.273,-0.124,-0.741,-262.207,150.696,254.089
-0.393,-0.068,-0.906,-264.404,152.832,264.404
-0.520,0.130,-1.148,-265.503,154.175,272.095
-0.688,0.412,-1.446,-264.771,144.043,277.466
-0.828,0.705,-1.746,-262.268,132.202,266.907
-0.973,1.056,-2.057,-258.057,113.098,239.746
-1.100,1.398,-2.281,-248.352,91.553,197.998
-1.103,1.545,-2.342,-230.835,62.866,137.817
-0.883,1.470,-2.223,-209.900,23.315,61.584
-0.569,1.254,-1.990,-194.580,-21.423,-14.832
-0.260,0.951,-1.696,-190.369,-59.753,-74.890
-0.001,0.625,-1.500,-181.030,-83.740,-106.262
0.209,0.450,-1.409,-155.334,-64.453,-104.797
0.290,0.446,-1.475,-121.094,-6.714,-80.627
0.302,0.620,-1.679,-90.881,54.688,-46.021
0.230,0.899,-1.910,-79.041,88.318,-14.282
0.160,1.115,-2.133,-84.534,80.750,-0.061
0.171,1.197,-2.246,-92.407,40.100,-2.014
0.238,1.097,-2.149,-89.600,-3.235,-8.301
0.354,0.972,-2.073,-74.219,-20.874,-40.588
0.501,0.796,-1.923,-45.471,-25.269,-69.397
0.681,0.658,-1.772,-15.808,-19.287,-79.468
0.720,0.559,-1.567,8.850,-18.311,-70.496
0.695,0.483,-1.347,25.269,-18.372,-53.894
0.635,0.430,-1.165,32.776,-17.578,-39.856
0.550,0.372,-1.013,32.654,-17.700,-28.809
0.463,0.318,-0.872,30.029,-19.226,-22.705
0.409,0.273,-0.733,27.161,-20.447,-19.836
0.361,0.229,-0.645,24.902,-21.179,-15.320
0.322,0.208,-0.595,22.461,-17.517,-9.460
0.300,0.207,-0.570,20.386,-10.986,-5.859
0.283,0.226,-0.558,17.944,-5.005,-3.723
0.289,0.249,-0.548,13.184,-0.671,-2.197
0.317,0.245,-0.543,7.263,1.953,-0.854
0.370,0.239,-0.553,-0.122,4.089,0.610
0.403,0.250,-0.595,-8.118,8.057,4.089
0.408,0.274,-0.671,-14.587,13.672,10.803
0.403,0.331,-0.766,-17.883,18.433,18.799
0.368,0.406,-0.852,-16.846,20.874,25.818
0.333,0.470,-0.909,-13.794,22.461,28.748
0.320,0.504,-0.933,-11.169,21.423,26.123
0.333,0.508,-0.953,-10.254,17.212,21.301
0.346,0.506,-0.957,-10.193,12.451,18.127
0.345,0.509,-0.949,-9.888,10.315,16.663
0.342,0.516,-0.954,-9.277,11.414,15.991
0.329,0.522,-0.970,-8.728,13.489,15.869
0.300,0.528,-0.988,-7.202,15.442,15.625
0.272,0.528,-0.990,-4.761,15.686,14.160
0.143,0.947,-1.909,32.410,37.109,45.654
0.052,1.106,-2.140,49.133,47.180,50.110
-0.074,1.291,-2.373,66.040,48.218,47.668
-0.239,1.480,-2.557,84.534,37.842,36.804
-0.394,1.620,-2.614,107.422,18.250,14.099
-0.492,1.651,-2.582,133.179,-4.944,-21.606
-0.510,1.557,-2.517,156.006,-28.442,-64.209
-0.453,1.383,-2.408,172.241,-50.171,-102.844
-0.376,1.212,-2.301,185.608,-68.237,-126.770
-0.359,1.087,-2.236,200.684,-75.317,-137.390
-0.393,1.005,-2.222,215.027,-72.937,-140.930
-0.467,0.934,-2.213,230.347,-71.716,-142.517
-0.541,0.827,-2.163,249.390,-75.073,-149.048
-0.616,0.670,-2.066,269.836,-80.566,-162.537
-0.666,0.487,-1.931,285.950,-88.440,-179.199
-0.713,0.311,-1.752,296.448,-100.159,-195.801
-0.720,0.120,-1.588,301.880,-113.647,-211.121
-0.726,-0.051,-1.451,301.941,-126.465,-223.328
-0.750,-0.208,-1.293,298.401,-141.357,-231.873
-0.783,-0.349,-1.134,294.617,-158.508,-237.671
-0.828,-0.492,-0.944,293.518,-171.509,-240.051
-0.838,-0.644,-0.747,296.753,-173.767,-242.126
-0.813,-0.745,-0.562,301.270,-165.649,-243.164
-0.807,-0.841,-0.422,306.580,-153.503,-239.807
-0.685,-0.883,-0.274,308.899,-136.230,-236.328
-0.525,-0.851,-0.123,307.373,-122.131,-236.511
-0.423,-0.829,0.013,303.833,-112.549,-238.403
-0.336,-0.785,0.097,296.753,-102.905,-237.488
-0.249,-0.807,0.166,291.382,-93.872,-235.046
-0.156,-0.928,0.249,291.199,-86.914,-238.159
-0.026,-1.082,0.367,290.466,-79.285,-250.793
0.111,-1.263,0.497,282.654,-74.768,-269.592
0.170,-1.496,0.624,261.108,-79.834,-293.762
0.182,-1.936,0.770,231.201,-98.328,-321.533
0.292,-2.617,1.095,201.965,-125.488,-350.830
0.612,-3.207,1.697,172.729,-156.189,-374.146
1.025,-3.511,2.271,142.883,-167.480,-374.695
1.381,-3.515,2.485,108.826,-123.413,-340.759
1.818,-3.314,2.249,67.139,-37.415,-269.775
2.102,-2.933,1.889,17.090,30.579,-169.373
1.987,-2.449,1.517,-36.621,56.641,-57.129
1.666,-1.973,1.206,-81.055,64.941,54.810
1.273,-1.552,0.894,-106.384,73.486,154.297
0.929,-1.148,0.665,-117.004,82.886,221.130
0.641,-0.803,0.519,-116.150,88.928,252.014
0.449,-0.541,0.423,-107.117,86.792,256.958
0.364,-0.368,0.403,-99.365,78.369,244.629
0.317,-0.289,0.434,-97.473,62.439,221.619
0.313,-0.267,0.525,-102.600,47.607,189.941
0.375,-0.268,0.633,-115.051,39.368,155.579
0.441,-0.291,0.699,-133.789,33.569,129.456
0.507,-0.331,0.709,-155.945,29.541,116.272
0.552,-0.376,0.672,-176.758,29.968,112.488
0.559,-0.418,0.601,-193.481,35.278,114.258
0.585,-0.420,0.518,-206.482,45.288,117.859
0.593,-0.428,0.438,-215.820,55.176,126.770
0.570,-0.421,0.344,-223.022,61.707,138.367
0.530,-0.404,0.251,-227.600,68.909,150.940
0.466,-0.374,0.160,-227.539,78.125,163.452
0.398,-0.333,0.045,-224.365,88.135,174.500
0.323,-0.256,-0.083,-219.055,96.252,184.692
0.222,-0.163,-0.176,-213.989,98.816,192.688
0.148,-0.081,-0.214,-209.534,95.093,193.604
0.113,-0.033,-0.222,-204.651,89.355,186.340
0.104,-0.021,-0.224,-200.562,86.304,172.546
0.132,-0.029,-0.260,-199.524,89.417,157.654
0.198,-0.058,-0.317,-202.271,96.130,148.621
0.256,-0.084,-0.381,-206.787,100.891,149.902
0.233,-0.065,-0.476,-210.754,103.394,161.255
0.118,0.011,-0.597,-214.050,108.215,177.795
-0.010,0.083,-0.737,-214.294,113.953,191.956
-0.072,0.206,-0.809,-208.313,120.544,195.496
-0.161,0.321,-0.986,-197.754,118.896,196.594
-0.260,0.496,-1.124,-190.247,117.615,193.542
-0.366,0.679,-1.257,-187.988,113.403,180.481
-0.408,0.776,-1.302,-183.472,101.501,157.654
-0.357,0.776,-1.305,-172.913,89.172,129.150
-0.220,0.777,-1.292,-162.292,85.876,103.577
-0.157,0.771,-1.280,-160.156,89.111,91.248
-0.119,0.714,-1.310,-163.513,89.905,88.196
-0.082,0.750,-1.369,-166.382,87.524,85.815
-0.066,0.807,-1.453,-167.175,81.543,88.379
-0.090,0.852,-1.608,-165.710,79.712,87.708
-0.071,0.883,-1.709,-156.982,70.435,79.224
-0.046,0.902,-1.731,-140.259,61.768,66.528
0.004,0.877,-1.670,-120.117,60.303,52.917
0.065,0.859,-1.570,-101.074,59.204,42.908
0.098,0.837,-1.472,-88.501,57.434,40.344
0.141,0.826,-1.416,-86.243,53.284,40.283
0.190,0.814,-1.367,-92.896,43.274,38.025
0.221,0.782,-1.385,-98.999,27.771,36.987
0.209,0.789,-1.422,-95.886,24.353,39.673
0.207,0.784,-1.494,-83.618,32.898,45.105
0.182,0.828,-1.693,-66.711,39.368,52.856
0.117,0.968,-1.774,-52.063,46.021,63.782
0.026,1.132,-1.891,-37.354,43.274,53.894
0.046,1.175,-1.830,-22.583,31.189,33.569
0.064,1.146,-1.756,-13.123,13.794,15.503
0.064,1.035,-1.591,-7.629,-8.240,-0.488
0.091,0.893,-1.398,-2.319,-23.499,-17.517
0.130,0.731,-1.194,3.113,-32.898,-31.189
0.154,0.597,-1.000,9.460,-39.368,-37.842
0.168,0.488,-0.826,18.494,-37.903,-39.368
0.202,0.386,-0.698,25.818,-28.564,-38.940
0.241,0.319,-0.616,26.428,-19.775,-36.865
0.259,0.288,-0.563,21.240,-15.686,-31.738
0.262,0.257,-0.535,13.916,-14.160,-24.048
0.276,0.240,-0.522,5.737,-13.184,-16.724
0.287,0.236,-0.514,-1.221,-11.292,-10.193
0.287,0.242,-0.521,-5.432,-7.324,-4.395
0.303,0.264,-0.559,-7.935,-0.305,1.404
0.310,0.300,-0.641,-10.254,6.470,7.263
0.312,0.339,-0.710,-13.855,10.620,11.780
0.298,0.396,-0.806,-17.639,11.475,14.893
0.301,0.432,-0.890,-20.813,11.108,16.968
0.292,0.457,-0.956,-21.973,10.132,17.761
0.281,0.487,-1.017,-21.240,10.620,18.433
0.264,0.514,-1.056,-17.212,11.902,18.738
0.235,0.544,-1.067,-11.230,13.062,17.822
0.009,0.991,-2.007,20.203,84.595,64.819
-0.192,1.259,-2.238,31.311,88.989,68.420
-0.421,1.464,-2.475,42.908,76.538,57.129
-0.550,1.577,-2.638,58.594,45.837,29.419
-0.653,1.600,-2.685,81.909,5.859,-7.812
-0.707,1.531,-2.596,107.239,-30.640,-49.561
-0.685,1.386,-2.419,129.822,-61.279,-92.041
-0.644,1.207,-2.220,148.926,-85.022,-128.967
-0.606,1.020,-2.034,164.490,-97.351,-155.945
-0.553,0.851,-1.965,177.368,-98.206,-171.265
-0.493,0.725,-1.935,189.941,-97.656,-176.941
-0.482,0.618,-1.887,203.857,-101.624,-179.749
-0.496,0.477,-1.798,218.323,-110.352,-184.082
-0.515,0.346,-1.680,231.934,-122.131,-188.293
-0.564,0.264,-1.571,244.202,-131.470,-191.101
-0.628,0.196,-1.463,254.700,-138.367,-193.359
-0.680,0.133,-1.367,263.428,-146.240,-197.754
-0.724,0.085,-1.251,270.813,-154.602,-203.491
-0.775,0.036,-1.137,277.832,-160.278,-210.144
-0.833,-0.039,-1.017,282.715,-165.161,-219.971
-0.873,-0.123,-0.882,285.217,-172.974,-233.032
-0.902,-0.222,-0.730,288.513,-182.312,-247.803
-0.918,-0.334,-0.580,293.274,-188.171,-264.343
-0.916,-0.452,-0.423,299.561,-189.697,-281.128
-0.867,-0.570,-0.281,306.335,-185.303,-297.180
-0.752,-0.667,-0.179,311.035,-174.438,-310.364
-0.635,-0.716,-0.090,312.988,-160.889,-318.298
-0.526,-0.777,0.010,314.636,-149.353,-321.167
-0.380,-0.855,0.132,315.186,-142.883,-320.740
-0.260,-0.905,0.274,311.584,-140.564,-318.481
-0.161,-0.986,0.403,305.176,-138.245,-317.322
-0.034,-1.114,0.496,295.593,-133.240,-315.918
0.079,-1.287,0.549,281.982,-123.047,-314.636
0.153,-1.494,0.601,264.282,-112.427,-315.125
0.165,-1.749,0.642,243.347,-109.375,-316.711
0.111,-2.092,0.718,221.680,-117.249,-319.275
0.031,-2.532,0.861,201.599,-131.531,-319.031
0.154,-2.951,1.207,186.523,-138.794,-313.293
0.381,-3.231,1.563,175.232,-142.151,-297.546
0.820,-3.359,1.934,155.396,-122.742,-273.560
1.208,-3.275,2.237,113.342,-74.768,-241.028
1.456,-3.047,2.247,56.519,-11.169,-186.340
1.595,-2.699,1.900,-3.296,59.082,-115.540
1.514,-2.340,1.418,-59.448,109.131,-35.156
1.311,-2.006,1.012,-101.685,125.977,49.561
1.075,-1.719,0.728,-136.719,110.596,135.437
0.803,-1.504,0.521,-160.339,80.383,208.130
0.579,-1.276,0.420,-166.565,62.317,253.845
0.366,-1.066,0.371,-158.997,61.584,273.682
0.249,-0.880,0.361,-144.165,71.289,271.973
0.200,-0.711,0.373,-131.287,84.351,257.385
0.207,-0.574,0.403,-126.648,92.651,238.159
0.226,-0.479,0.450,-131.897,91.736,220.154
0.262,-0.408,0.512,-146.118,85.449,204.041
0.307,-0.374,0.546,-165.344,78.857,191.528
0.334,-0.355,0.546,-185.303,75.745,183.044
0.332,-0.346,0.493,-204.529,77.087,178.589
0.341,-0.334,0.408,-221.069,80.872,178.589
0.338,-0.335,0.312,-232.239,84.778,182.312
0.307,-0.338,0.229,-237.061,88.989,188.110
0.279,-0.340,0.161,-236.755,95.886,194.275
0.249,-0.344,0.094,-233.276,106.201,200.867
0.220,-0.337,0.004,-228.882,117.432,208.740
0.199,-0.315,-0.085,-224.792,125.427,218.689
0.174,-0.275,-0.149,-220.398,130.127,228.699
0.151,-0.229,-0.194,-216.370,134.460,237.244
0.120,-0.181,-0.231,-214.966,139.099,243.652
0.083,-0.148,-0.280,-216.919,143.738,248.596
0.035,-0.118,-0.343,-222.351,147.888,252.869
-0.018,-0.102,-0.451,-229.675,149.658,256.470
-0.061,-0.079,-0.573,-236.572,148.499,259.888
-0.128,-0.016,-0.705,-239.197,146.790,263.977
-0.219,0.081,-0.824,-236.877,147.156,267.273
-0.320,0.192,-0.919,-231.873,148.315,264.526
-0.373,0.344,-1.073,-225.647,147.034,255.493
-0.422,0.462,-1.281,-221.619,136.292,244.873
-0.449,0.625,-1.490,-219.971,123.779,225.586
-0.468,0.799,-1.625,-214.722,106.506,200.867
-0.460,0.950,-1.692,-202.759,89.905,175.049
-0.478,1.087,-1.723,-187.683,78.186,151.611
-0.485,1.198,-1.674,-174.805,73.425,128.357
-0.408,1.184,-1.686,-165.039,63.232,106.567
-0.276,1.136,-1.706,-159.790,56.030,80.994
-0.180,1.091,-1.730,-155.457,42.297,54.626
-0.095,1.007,-1.710,-148.254,27.405,33.936
-0.014,0.954,-1.671,-137.268,17.029,19.775
0.020,0.930,-1.617,-121.094,15.564,13.123
0.045,0.901,-1.544,-100.952,22.461,10.559
0.066,0.877,-1.452,-81.726,29.053,8.240
0.104,0.853,-1.372,-69.946,30.151,3.113
0.155,0.808,-1.315,-65.186,24.048,-3.052
0.199,0.748,-1.262,-64.636,14.648,-8.484
0.243,0.679,-1.216,-65.552,5.188,-13.245
0.270,0.614,-1.158,-65.674,-2.991,-16.907
0.285,0.559,-1.122,-63.904,-9.705,-18.433
