aX,aY,aZ,gX,gY,gZ
0.091,-0.118,1.028,131.714,-60.425,-188.599
0.054,-0.085,0.971,9.460,-2.625,-18.188
0.054,-0.082,0.964,-9.155,3.967,11.169
0.053,-0.083,0.967,-1.770,-0.488,1.465
0.053,-0.082,0.966,-0.488,-1.160,0.000
0.053,-0.082,0.963,-0.366,-1.038,-0.183
0.053,-0.082,0.960,-0.366,-1.282,-0.122
0.053,-0.082,0.960,-0.305,-1.282,-0.305
0.052,-0.082,0.961,-0.183,-1.526,-0.183
0.052,-0.082,0.959,-0.122,-1.404,-0.183
0.053,-0.084,0.957,-0.244,-1.282,-0.305
0.049,-0.083,0.965,-0.305,-1.404,-0.244
0.050,-0.083,0.959,-0.244,-1.160,-0.122
0.052,-0.082,0.959,-0.610,-0.977,-0.366
0.052,-0.083,0.961,-0.427,-1.221,-0.244
0.052,-0.081,0.962,-0.488,-1.038,-0.061
0.053,-0.083,0.961,-0.305,-1.038,-0.244
0.054,-0.083,0.960,-0.305,-1.099,-0.244
0.053,-0.082,0.960,-0.305,-1.282,-0.366
0.054,-0.082,0.959,0.000,-1.465,-0.366
0.052,-0.083,0.956,0.000,-1.526,-0.183
0.051,-0.081,0.960,-0.183,-1.648,-0.244
0.053,-0.082,0.958,-0.183,-1.343,-0.183
0.052,-0.081,0.960,-0.488,-1.221,-0.061
0.053,-0.082,0.961,-0.366,-1.038,-0.305
0.052,-0.083,0.962,-0.549,-1.221,-0.183
0.051,-0.082,0.965,-0.549,-1.160,-0.305
0.051,-0.083,0.962,-0.305,-1.038,-0.366
0.052,-0.081,0.959,-0.305,-1.038,-0.305
0.051,-0.082,0.960,-0.305,-1.404,-0.305
0.051,-0.082,0.958,-0.244,-1.648,-0.061
0.052,-0.083,0.958,-0.122,-1.709,-0.183
0.051,-0.084,0.960,-0.183,-1.587,-0.305
0.052,-0.084,0.960,-0.061,-1.282,-0.244
0.052,-0.085,0.959,-0.427,-1.221,-0.244
0.052,-0.086,0.961,-0.488,-1.038,-0.305
0.052,-0.084,0.962,-0.610,-0.854,-0.183
0.053,-0.083,0.961,-0.610,-0.793,-0.305
0.053,-0.082,0.960,-0.488,-0.916,-0.183
0.053,-0.081,0.961,-0.244,-0.977,-0.366
0.053,-0.081,0.960,-0.183,-1.282,-0.366
0.052,-0.080,0.960,-0.061,-1.526,-0.427
0.051,-0.081,0.961,-0.122,-1.587,-0.427
0.052,-0.082,0.960,-0.122,-1.587,-0.305
0.051,-0.082,0.961,-0.183,-1.648,-0.366
0.051,-0.082,0.963,-0.366,-1.160,-0.366
0.052,-0.083,0.963,-0.427,-0.854,-0.427
0.053,-0.082,0.963,-0.488,-0.793,-0.244
0.052,-0.082,0.961,-0.549,-0.854,-0.244
0.053,-0.082,0.961,-0.549,-1.099,-0.122
0.053,-0.082,0.961,-0.427,-1.221,-0.183
0.052,-0.083,0.961,-0.183,-1.343,-0.305
0.051,-0.083,0.962,-0.122,-1.526,-0.305
0.050,-0.084,0.961,-0.122,-1.648,-0.122
0.051,-0.084,0.961,-0.122,-1.404,-0.122
0.051,-0.084,0.964,-0.305,-1.282,-0.183
0.051,-0.083,0.962,-0.427,-1.221,-0.244
0.052,-0.082,0.963,-0.305,-1.038,-0.183
0.053,-0.081,0.963,-0.427,-0.854,-0.183
0.053,-0.081,0.963,-0.549,-0.793,-0.244
0.053,-0.082,0.963,-0.427,-1.160,-0.244
0.052,-0.083,0.961,-0.305,-1.160,-0.244
0.052,-0.082,0.960,-0.122,-1.465,-0.366
0.051,-0.082,0.961,-0.305,-1.587,-0.244
0.053,-0.083,0.962,-0.244,-1.404,-0.305
0.052,-0.082,0.963,-0.122,-1.404,-0.183
0.053,-0.081,0.962,-0.244,-1.282,-0.305
0.052,-0.082,0.963,-0.366,-1.099,-0.183
0.053,-0.082,0.965,-0.366,-0.916,-0.244
0.052,-0.083,0.965,-0.549,-0.916,-0.122
0.053,-0.083,0.965,-0.549,-0.916,-0.122
0.052,-0.082,0.962,-0.366,-1.038,-0.183
0.051,-0.082,0.962,-0.366,-1.404,-0.305
0.051,-0.083,0.961,-0.122,-1.648,-0.366
0.050,-0.082,0.962,0.000,-1.587,-0.305
0.051,-0.082,0.963,-0.244,-1.587,-0.305
0.051,-0.083,0.963,-0.244,-1.343,-0.305
0.052,-0.083,0.965,-0.305,-1.099,-0.305
0.052,-0.083,0.967,-0.549,-0.916,-0.122
0.053,-0.083,0.965,-0.549,-0.732,-0.183
0.052,-0.083,0.965,-0.549,-0.610,-0.183
0.053,-0.082,0.966,-0.671,-0.793,-0.183
0.054,-0.082,0.964,-0.549,-1.038,-0.122
0.055,-0.082,0.963,-0.244,-1.343,-0.183
0.055,-0.082,0.964,-0.183,-1.465,-0.183
0.054,-0.081,0.964,-0.244,-1.404,-0.366
0.053,-0.082,0.964,-0.122,-1.343,-0.244
0.053,-0.082,0.966,-0.366,-1.282,-0.366
0.052,-0.083,0.965,-0.305,-1.282,-0.427
0.052,-0.083,0.966,-0.549,-1.160,-0.244
0.051,-0.084,0.965,-0.610,-0.916,-0.305
0.051,-0.081,0.966,-0.549,-0.916,-0.427
0.051,-0.082,0.962,-0.366,-1.160,-0.183
0.052,-0.081,0.962,-0.427,-1.465,-0.183
0.051,-0.082,0.963,-0.244,-1.465,-0.183
0.051,-0.083,0.964,-0.366,-1.465,-0.244
0.051,-0.083,0.964,-0.244,-1.404,-0.305
0.051,-0.083,0.967,-0.244,-1.343,-0.244
0.051,-0.084,0.967,-0.366,-1.221,-0.244
0.052,-0.083,0.966,-0.610,-1.038,-0.183
0.053,-0.084,0.966,-0.610,-0.916,-0.061
0.053,-0.082,0.965,-0.549,-1.099,-0.061
0.053,-0.081,0.964,-0.427,-1.099,-0.244
0.053,-0.081,0.963,-0.366,-1.282,-0.305
0.051,-0.081,0.964,-0.366,-1.526,-0.366
0.052,-0.081,0.966,-0.366,-1.343,-0.183
0.052,-0.082,0.966,-0.183,-1.404,-0.366
0.052,-0.083,0.966,-0.305,-1.404,-0.305
0.051,-0.083,0.966,-0.305,-1.221,-0.305
0.052,-0.082,0.966,-0.549,-0.977,-0.061
0.053,-0.083,0.966,-0.549,-0.793,-0.122
0.053,-0.083,0.966,-0.549,-1.160,-0.122
0.054,-0.082,0.965,-0.366,-1.160,-0.244
0.053,-0.083,0.967,-0.305,-1.221,-0.366
0.053,-0.083,0.965,-0.061,-1.343,-0.244
0.052,-0.083,0.965,-0.305,-1.465,-0.183
0.051,-0.083,0.966,-0.366,-1.465,-0.183
0.051,-0.083,0.967,-0.305,-1.343,-0.244
0.051,-0.083,0.967,-0.427,-1.221,-0.244
1.735,-2.151,2.461,211.365,-128.418,-0.549
1.014,-2.241,0.002,423.035,-70.496,-30.579
-0.030,-0.843,-0.639,285.217,-83.984,13.672
-0.561,1.227,0.273,-310.852,-138.062,139.038
-0.929,1.750,0.761,-231.750,-225.220,169.312
-0.096,-1.021,0.554,-168.579,-228.516,138.733
0.205,-0.411,0.676,-119.873,-188.110,95.703
0.006,-0.277,0.607,-97.473,-137.634,69.580
0.025,-0.344,0.723,-66.223,-89.783,34.302
0.077,-0.352,0.833,-41.321,-30.823,15.442
-0.309,-0.809,0.989,-21.484,4.578,4.150
0.120,-0.538,1.021,-8.362,10.315,33.386
0.223,-0.695,1.210,-4.944,18.311,51.025
0.166,-0.636,1.100,-14.465,30.884,59.875
0.280,-0.554,1.115,-28.564,34.546,67.810
0.313,-0.425,1.067,-41.016,27.771,79.712
0.232,-0.433,1.029,-49.744,21.179,86.670
0.205,-0.345,0.735,-43.884,19.470,90.332
0.221,-0.485,0.809,-12.390,9.399,81.909
0.291,-0.573,0.891,23.804,9.521,73.364
0.359,-0.567,0.828,45.227,22.278,76.294
0.394,-0.542,0.833,52.124,24.658,80.627
0.368,-0.505,0.942,55.786,27.649,90.332
0.435,-0.566,0.878,68.787,38.513,100.098
0.443,-0.648,0.735,77.698,52.795,106.201
0.436,-0.675,0.662,72.388,58.594,111.572
0.472,-0.692,0.626,67.627,47.546,120.056
0.490,-0.672,0.667,56.641,11.780,130.310
0.488,-0.638,0.740,35.400,-39.246,143.127
0.277,-0.664,0.592,-3.662,-98.145,151.733
0.267,-0.410,0.629,-24.414,-90.942,132.996
0.321,-0.444,0.660,5.493,-36.133,121.399
0.318,-0.467,0.642,31.372,-27.893,119.934
0.311,-0.478,0.687,32.043,-44.495,118.774
0.292,-0.460,0.730,24.109,-61.401,120.667
0.107,-0.484,0.877,15.930,-74.890,125.305
0.246,-0.368,0.802,-5.310,-86.548,120.544
0.250,-0.377,0.798,-4.456,-77.393,120.789
0.156,-0.289,0.819,11.353,-65.125,129.028
0.138,-0.233,0.774,23.804,-54.260,132.019
0.148,-0.241,0.733,36.194,-45.593,131.653
0.193,-0.282,0.713,45.898,-45.898,132.568
0.212,-0.313,0.712,44.434,-57.129,137.268
0.185,-0.290,0.712,32.593,-74.097,147.461
0.109,-0.244,0.727,20.630,-86.853,158.264
0.020,-0.178,0.702,18.677,-92.651,163.635
-0.046,-0.143,0.668,29.419,-91.064,160.217
-0.076,-0.098,0.685,46.875,-82.520,148.987
-0.094,-0.059,0.750,55.847,-74.097,133.972
-0.101,-0.067,0.762,55.908,-68.359,119.080
-0.093,-0.090,0.751,54.565,-67.688,106.079
-0.094,-0.093,0.794,51.453,-72.998,94.055
-0.103,-0.112,0.876,46.753,-80.933,85.449
-0.099,-0.199,0.950,41.626,-85.938,79.712
-0.108,-0.090,0.997,38.879,-89.111,76.782
-0.087,-0.013,1.037,31.555,-92.407,70.557
-0.064,-0.116,1.039,19.348,-90.210,59.509
-0.062,-0.143,1.048,9.827,-86.182,54.077
-0.061,-0.187,1.038,7.202,-83.923,54.382
-0.073,-0.169,1.036,3.784,-85.327,53.223
-0.106,-0.134,1.073,-0.244,-88.928,50.537
-0.124,-0.105,1.090,-1.404,-86.792,49.622
-0.161,-0.104,1.107,0.793,-79.224,47.363
-0.164,-0.089,1.109,2.441,-71.594,41.016
-0.173,-0.111,1.115,1.770,-65.063,30.945
-0.183,-0.124,1.088,0.916,-56.946,19.592
-0.176,-0.124,1.069,0.122,-51.697,7.874
-0.151,-0.165,1.074,1.221,-49.377,0.549
-0.128,-0.162,1.088,3.479,-46.814,-1.831
-0.110,-0.183,1.103,5.920,-43.396,-0.793
-0.110,-0.171,1.123,5.005,-39.551,-0.488
-0.097,-0.189,1.115,3.723,-33.020,-0.549
-0.120,-0.175,1.096,0.977,-26.794,1.465
-0.123,-0.166,1.043,-1.709,-21.729,2.991
-0.128,-0.152,1.010,-3.845,-18.555,1.038
-0.124,-0.158,0.983,-5.493,-17.883,-0.671
-0.109,-0.177,0.973,-6.653,-18.738,-1.221
-0.100,-0.206,0.966,-8.179,-19.775,-1.831
-0.084,-0.219,0.958,-9.094,-20.752,-2.747
-0.073,-0.249,0.969,-8.240,-22.217,-1.892
-0.062,-0.255,0.972,-7.324,-22.400,0.122
-0.056,-0.238,0.979,-5.615,-20.691,1.770
-0.058,-0.236,0.977,-4.333,-17.334,4.761
-0.072,-0.232,0.974,-4.395,-13.000,6.958
-0.058,-0.226,0.956,-3.784,-9.277,8.484
-0.075,-0.240,0.949,-3.601,-6.836,9.216
-0.095,-0.202,0.929,-4.211,-6.409,7.996
-0.090,-0.194,0.919,-3.235,-5.127,3.845
-0.086,-0.209,0.920,-2.502,-5.981,1.587
-0.070,-0.224,0.923,-2.869,-8.423,0.549
-0.065,-0.236,0.938,-3.967,-11.169,1.526
-0.062,-0.224,0.960,-4.944,-12.634,2.686
-0.056,-0.228,0.977,-4.883,-11.230,4.211
-0.049,-0.235,0.980,-4.944,-8.179,6.165
-0.056,-0.214,0.966,-4.944,-4.761,7.507
-0.061,-0.199,0.956,-4.456,-1.770,8.423
-0.076,-0.192,0.947,-4.333,0.488,8.606
-0.077,-0.186,0.941,-4.028,1.038,6.958
-0.076,-0.193,0.946,-4.211,0.122,5.554
-0.073,-0.207,0.955,-4.578,-1.099,4.395
-0.064,-0.207,0.961,-4.272,-2.197,3.235
-0.049,-0.215,0.970,-3.906,-2.747,3.235
-0.038,-0.230,0.979,-3.845,-2.869,3.601
-0.014,-0.239,0.991,-5.310,-4.517,5.737
-0.005,-0.243,1.008,-7.874,-4.883,8.728
0.001,-0.249,1.008,-10.437,-3.113,12.329
0.000,-0.236,1.015,-12.329,-1.831,15.381
0.000,-0.229,1.021,-14.587,-0.854,18.494
0.004,-0.228,1.025,-18.860,-0.061,20.630
0.004,-0.228,1.026,-23.560,0.793,22.217
0.003,-0.216,1.016,-25.574,1.526,23.865
-0.001,-0.198,1.007,-25.391,2.319,25.269
-0.018,-0.177,0.996,-24.353,3.113,26.672
-0.035,-0.146,0.974,-22.034,4.211,25.391
-0.045,-0.138,0.949,-17.639,4.150,23.071
-0.052,-0.124,0.934,-13.062,1.770,21.240
-0.049,-0.098,0.947,-7.324,-2.197,18.982
-0.051,-0.075,0.967,-1.953,-5.188,17.944
-0.054,-0.055,0.982,0.671,-5.981,17.883
-0.120,1.357,1.335,2.869,5.615,23.132
-0.176,1.567,1.378,2.441,19.836,30.884
-0.300,1.769,1.415,1.404,37.354,40.100
-0.475,2.008,1.391,4.639,59.021,45.959
-0.642,2.215,1.343,9.644,82.581,46.692
-0.818,2.315,1.286,6.226,101.990,45.959
-1.047,2.277,1.176,-14.709,111.023,38.940
-1.247,2.167,0.883,-52.063,105.469,16.052
-1.413,1.948,0.523,-95.581,75.745,-23.621
-1.486,1.537,0.256,-128.235,20.508,-77.820
-1.336,0.846,0.063,-132.324,-42.847,-141.479
-1.131,-0.061,0.001,-120.239,-110.901,-187.500
-0.854,-1.223,0.187,-94.421,-180.847,-197.388
-0.443,-2.571,0.618,-42.969,-233.765,-163.269
-0.155,-3.496,0.981,23.315,-243.347,-92.102
0.052,-3.588,1.071,74.646,-207.581,-32.715
0.472,-3.566,1.063,99.609,-173.889,-48.767
1.072,-4.000,1.428,114.624,-200.806,-134.216
1.853,-4.000,1.818,101.929,-278.809,-202.454
2.287,-4.000,2.598,46.082,-348.877,-186.340
2.403,-4.000,3.340,21.606,-330.261,-108.093
2.235,-4.000,3.468,26.123,-189.819,-22.156
1.624,-4.000,2.699,19.531,25.208,68.787
0.652,-4.000,1.518,-7.568,209.961,168.274
-0.315,-3.427,0.403,-39.429,296.509,228.638
-0.937,-2.568,-0.380,-59.753,255.920,227.295
-1.227,-1.891,-0.514,-74.829,121.277,201.416
-1.366,-1.306,-0.157,-84.106,-18.616,175.720
-1.445,-0.710,0.323,-81.726,-92.041,154.907
-1.424,-0.212,0.504,-67.505,-81.848,133.057
-1.401,0.159,0.426,-45.288,-21.057,110.840
-1.409,0.488,0.313,-11.414,37.231,94.604
-1.412,0.866,0.339,32.898,64.697,84.961
-1.341,1.298,0.495,66.833,64.392,80.200
-1.263,1.682,0.643,71.838,52.124,73.486
-1.242,1.934,0.776,58.777,44.617,65.369
-1.265,2.011,0.906,53.223,41.809,52.307
-1.223,1.946,0.912,57.129,36.865,28.809
-1.070,1.772,0.975,51.941,21.057,-2.197
-0.853,1.555,1.133,41.077,-8.240,-28.198
-0.665,1.358,1.303,26.123,-33.325,-40.466
-0.519,1.163,1.385,12.207,-36.011,-44.556
-0.416,0.943,1.338,8.789,-20.081,-47.852
-0.335,0.744,1.237,12.878,-2.380,-55.298
-0.210,0.520,1.122,14.893,5.859,-67.200
-0.068,0.247,1.055,10.437,2.380,-78.064
0.094,-0.028,1.090,5.737,-8.667,-82.825
0.260,-0.240,1.178,4.456,-17.700,-74.097
0.356,-0.354,1.226,2.563,-16.174,-55.908
0.386,-0.401,1.203,-1.099,-4.761,-37.781
0.353,-0.367,1.098,-5.310,10.193,-18.738
0.247,-0.346,0.949,-8.240,25.574,0.793
0.135,-0.321,0.887,-6.775,31.799,13.245
0.050,-0.257,0.898,1.770,31.311,18.616
0.005,-0.222,0.906,9.827,29.785,16.479
-0.038,-0.224,0.910,10.864,27.893,11.658
-0.064,-0.225,0.934,8.301,24.292,8.545
-0.092,-0.244,0.985,6.226,20.508,10.071
-0.135,-0.240,1.032,3.967,18.311,13.733
-0.157,-0.244,1.040,2.991,19.226,16.296
-0.180,-0.259,1.050,1.770,20.752,19.470
-0.208,-0.264,1.069,-0.305,20.935,21.423
-0.217,-0.265,1.056,-2.136,20.874,19.226
-0.213,-0.265,1.002,-3.845,20.386,14.587
-0.201,-0.246,0.971,-4.700,17.212,10.376
-0.210,-0.201,0.973,-5.737,11.047,9.094
-0.223,-0.169,0.967,-6.958,6.592,8.301
-0.230,-0.164,0.962,-7.996,3.967,7.141
-0.234,-0.158,0.968,-7.996,2.563,6.714
-0.234,-0.147,0.994,-5.615,2.991,6.042
-0.224,-0.152,1.005,-3.357,5.737,4.944
-0.203,-0.171,1.002,-2.869,8.728,4.028
-0.193,-0.199,0.977,-4.578,9.216,2.136
-0.173,-0.241,0.955,-7.568,6.775,-0.977
-0.149,-0.264,0.956,-9.460,2.014,-3.235
-0.126,-0.272,0.956,-9.277,-0.793,-5.066
-0.103,-0.289,0.955,-6.653,-0.854,-4.822
-0.088,-0.287,0.958,-3.845,-0.488,-2.991
-0.085,-0.276,0.952,-2.319,0.366,-1.831
-0.093,-0.253,0.941,-1.587,1.648,-1.953
-0.095,-0.232,0.932,-0.549,2.625,-1.892
-0.098,-0.209,0.927,0.549,3.113,-1.465
-0.130,-0.158,0.927,1.343,4.028,-0.061
-0.166,-0.119,0.919,2.014,5.493,0.488
-0.172,-0.115,0.903,0.366,5.188,-2.747
-0.167,-0.151,0.879,-3.418,2.747,-8.240
-0.151,-0.195,0.875,-6.165,-1.953,-13.672
-0.115,-0.246,0.911,-4.150,-6.897,-17.395
-0.075,-0.284,0.954,0.427,-8.240,-18.433
-0.051,-0.297,0.981,4.089,-6.470,-17.029
-0.049,-0.295,0.991,4.578,-4.089,-14.648
-0.056,-0.294,0.991,2.747,-2.930,-11.902
-0.089,-0.247,0.990,-0.916,-2.258,-8.911
-0.136,-0.188,0.986,-4.761,-1.343,-6.592
-0.198,-0.112,0.965,-9.033,1.099,-5.798
-0.261,-0.078,0.898,-14.282,3.723,-6.409
-0.288,-0.125,0.820,-19.470,3.784,-10.254
-0.245,-0.222,0.795,-18.494,1.892,-17.639
-0.161,-0.289,0.856,-6.775,-1.587,-23.621
-0.074,-0.346,0.923,7.080,-1.587,-25.269
0.003,-0.423,0.975,15.442,2.808,-22.644
0.041,-0.446,1.029,18.372,5.493,-16.052
0.050,-0.425,1.059,18.250,7.690,-9.033
0.043,-0.405,1.065,13.062,10.681,-2.686
0.021,-0.364,1.045,5.554,11.597,2.197
-0.008,-0.316,1.028,-0.549,10.437,5.554
-0.046,-0.284,1.012,-4.700,8.911,7.202
-0.071,-0.261,1.000,-5.554,7.751,6.348
-0.079,-0.242,1.000,-2.136,7.141,3.845
-0.084,-0.223,1.000,2.808,6.348,2.441
-0.091,-0.215,0.999,5.981,5.432,2.380
-0.090,-0.211,0.999,7.568,3.662,1.770
-0.074,-0.215,1.020,7.507,1.099,0.793
-0.060,-0.207,1.041,5.066,-0.366,0.671
-0.061,-0.196,1.042,-0.366,-1.160,2.075
-0.073,-0.188,1.018,-7.568,-1.343,4.150
-0.093,-0.182,0.998,-12.207,-1.404,5.188
-0.101,-0.180,0.973,-13.611,-1.465,4.333
-0.096,-0.192,0.949,-12.878,-1.343,2.136
-0.417,2.082,2.102,111.267,58.655,45.044
-0.723,2.690,2.365,112.366,98.755,52.246
-1.110,3.070,2.461,85.144,140.686,49.316
-1.475,3.216,2.360,21.301,168.762,26.428
-1.730,3.144,2.081,-69.702,173.218,-9.949
-1.882,2.877,1.694,-171.143,150.940,-46.570
-1.983,2.509,1.237,-269.531,109.863,-91.064
-1.993,2.082,0.710,-338.013,57.983,-147.949
-1.925,1.594,0.187,-355.835,2.747,-213.623
-1.767,0.473,-0.211,-320.007,-60.730,-281.677
-1.048,-1.544,-0.290,-235.779,-135.742,-331.909
-0.079,-3.798,0.565,-110.901,-222.656,-327.087
0.891,-4.000,1.869,69.214,-260.315,-252.441
1.741,-4.000,2.510,203.308,-180.359,-141.785
1.882,-4.000,2.343,195.312,-10.254,-48.584
1.676,-4.000,1.572,123.291,120.361,7.751
1.554,-4.000,0.624,55.481,139.038,21.912
1.532,-4.000,0.079,-17.700,63.599,17.883
1.398,-4.000,0.227,-69.214,-48.523,32.593
1.117,-3.921,0.577,-67.871,-106.567,72.693
0.742,-3.295,0.557,-38.574,-75.562,113.892
0.280,-2.755,0.230,-12.939,-7.141,144.287
-0.144,-2.455,-0.061,4.456,30.029,163.147
-0.416,-2.324,-0.045,16.296,10.925,166.504
-0.572,-2.169,0.178,25.330,-43.274,165.833
-0.588,-2.140,0.456,30.945,-91.614,168.396
-0.593,-2.067,0.738,35.339,-118.530,169.312
-0.697,-1.865,1.013,46.753,-127.991,170.532
-0.792,-1.633,1.160,61.646,-119.690,168.701
-0.971,-1.250,1.269,68.115,-104.797,165.039
-1.135,-0.763,1.336,57.861,-99.548,160.522
-1.236,-0.364,1.370,29.846,-99.670,156.128
-1.288,-0.029,1.412,-1.953,-89.600,153.687
-1.244,0.342,1.413,-15.808,-62.317,154.541
-1.202,0.699,1.404,-4.639,-22.034,161.560
-1.139,1.136,1.371,22.400,26.245,169.128
-1.179,1.711,1.331,57.007,70.374,179.077
-1.382,2.511,1.391,92.834,101.929,194.641
-1.827,3.466,1.563,134.766,123.047,215.088
-2.574,4.000,1.757,171.997,138.733,230.469
-3.230,4.000,1.587,172.241,146.362,194.885
-3.143,4.000,1.038,90.088,124.023,62.866
-2.509,3.397,0.541,-48.279,36.438,-107.605
-1.766,1.769,0.546,-162.781,-103.516,-236.206
-0.898,0.170,0.901,-203.186,-209.839,-308.716
-0.016,-1.207,1.278,-168.457,-233.398,-325.562
0.726,-2.219,1.529,-86.609,-189.331,-292.969
1.300,-2.777,1.677,-16.296,-128.052,-231.812
1.484,-2.854,1.796,10.193,-84.290,-163.330
1.518,-2.654,1.801,4.272,-48.645,-97.107
1.363,-2.304,1.622,-11.353,-9.766,-35.706
1.062,-1.786,1.335,-19.043,31.433,19.226
0.687,-1.187,1.074,-16.663,65.613,66.040
0.302,-0.611,0.794,-5.005,88.867,99.121
-0.079,-0.095,0.581,7.141,96.130,114.929
-0.375,0.311,0.482,17.090,86.792,119.019
-0.600,0.581,0.507,23.865,64.941,108.093
-0.720,0.706,0.639,26.917,40.222,86.243
-0.746,0.700,0.802,26.672,18.616,60.730
-0.721,0.583,0.941,21.240,4.333,35.889
-0.697,0.431,1.074,13.977,-3.296,14.038
-0.604,0.224,1.163,9.277,-7.263,-5.920
-0.462,-0.030,1.185,2.563,-8.362,-23.010
-0.304,-0.295,1.175,-7.935,-8.362,-33.691
-0.168,-0.489,1.154,-17.151,-9.644,-36.194
-0.075,-0.594,1.140,-22.522,-9.949,-33.020
-0.004,-0.651,1.086,-24.841,-6.287,-26.428
0.025,-0.640,1.020,-24.719,-1.099,-19.775
0.037,-0.579,0.954,-20.813,2.502,-12.695
0.028,-0.490,0.894,-15.015,5.310,-6.348
0.013,-0.388,0.852,-8.850,7.568,-1.892
-0.029,-0.292,0.830,-3.052,8.423,2.258
-0.071,-0.236,0.807,0.366,8.545,4.761
-0.103,-0.201,0.802,1.282,5.554,4.883
-0.138,-0.177,0.827,1.770,0.000,3.662
-0.144,-0.174,0.862,5.188,-3.967,0.549
-0.125,-0.195,0.906,9.949,-5.371,-2.380
-0.123,-0.215,0.963,12.634,-4.517,-2.075
-0.114,-0.241,0.980,13.000,-2.014,-0.549
-0.132,-0.265,0.988,11.658,0.427,0.549
-0.141,-0.274,1.000,11.353,1.770,1.282
-0.133,-0.274,1.001,10.559,2.075,-0.061
-0.113,-0.275,0.996,6.226,0.061,-2.380
-0.100,-0.273,0.990,0.732,-3.357,-3.113
-0.098,-0.260,0.990,-1.892,-5.066,-3.357
-0.108,-0.252,0.974,0.122,-3.601,-3.418
-0.105,-0.241,0.974,2.991,-1.709,-4.089
-0.096,-0.237,0.984,4.456,-1.404,-5.127
-0.077,-0.237,0.989,4.028,-1.160,-6.653
-0.056,-0.254,0.990,2.563,0.122,-7.019
-0.032,-0.277,0.992,0.671,2.380,-5.737
-0.039,-0.276,1.001,-1.526,4.333,-3.784
-0.048,-0.277,0.982,-4.150,6.836,-2.319
-0.061,-0.289,0.953,-7.446,8.545,-1.709
-0.066,-0.298,0.916,-8.728,8.118,-1.770
-0.059,-0.315,0.907,-6.531,6.470,-1.282
-0.044,-0.307,0.918,-1.587,5.310,-0.610
-0.031,-0.289,0.922,3.052,5.920,0.488
-0.034,-0.273,0.910,4.517,7.690,2.563
-0.058,-0.261,0.901,4.272,8.240,4.333
-0.069,-0.263,0.910,5.493,7.812,4.639
-0.068,-0.267,0.942,7.141,6.897,5.127
-0.072,-0.265,0.962,7.751,6.653,5.737
-0.090,-0.262,0.961,6.042,6.775,5.737
-0.101,-0.266,0.932,3.174,6.042,5.005
-0.109,-0.271,0.926,1.953,3.540,3.906
-0.107,-0.278,0.945,3.845,1.038,2.991
-0.104,-0.273,0.979,7.202,-0.610,2.747
-0.109,-0.258,1.009,9.521,-0.183,2.502
-0.113,-0.240,1.018,8.972,1.831,1.465
-0.101,-0.237,1.012,4.089,2.197,-0.122
-0.095,-0.245,1.002,-3.906,0.122,-0.793
-0.093,-0.258,0.993,-9.644,-1.526,-0.671
-0.094,-0.283,0.981,-10.742,-0.549,-0.244
-0.098,-0.296,0.977,-8.179,0.793,0.305
-0.104,-0.309,0.974,-4.700,1.709,0.488
-0.091,-0.326,0.965,-1.831,2.258,0.671
-0.073,-0.330,0.964,0.244,2.075,-0.122
-0.051,-0.337,0.954,2.258,2.808,-1.221
-0.641,1.500,1.597,44.495,65.247,31.799
-0.891,2.068,1.812,63.171,88.440,31.189
-1.174,2.612,1.960,82.397,124.817,28.931
-1.496,3.110,2.037,90.149,162.292,23.926
-1.890,3.355,2.020,78.552,183.899,14.465
-2.182,3.533,2.037,30.212,175.842,-10.498
-2.610,3.425,2.219,-51.208,138.062,-56.946
-2.802,2.974,1.976,-163.818,101.013,-137.756
-2.904,2.254,1.120,-286.743,83.252,-243.774
-2.735,1.175,0.219,-366.638,41.199,-339.539
-2.111,-0.369,-0.431,-378.784,-40.344,-407.166
-1.178,-2.377,-0.513,-324.341,-133.118,-424.316
-0.227,-4.000,-0.101,-209.595,-199.707,-388.611
0.730,-4.000,0.547,-46.814,-210.205,-329.224
1.672,-4.000,1.180,117.188,-182.190,-255.432
2.407,-4.000,1.784,166.138,-172.974,-185.181
2.570,-4.000,2.139,114.807,-156.189,-115.540
2.812,-4.000,2.134,54.199,-111.511,-44.983
2.877,-4.000,2.183,6.165,-86.853,18.616
2.291,-4.000,1.913,-13.428,-37.231,109.253
1.174,-4.000,1.005,-5.981,75.928,210.571
0.251,-3.543,-0.030,12.573,172.424,275.269
-0.390,-2.621,-0.493,30.396,157.104,291.626
-0.859,-1.742,-0.360,39.551,65.063,288.513
-1.125,-0.948,0.010,43.396,-10.864,283.142
-1.286,-0.482,0.300,58.777,-28.015,276.794
-1.365,-0.144,0.462,77.515,-21.973,260.376
-1.449,-0.029,0.638,80.994,-30.396,240.112
-1.502,0.073,0.864,70.068,-58.167,221.863
-1.624,0.404,1.268,53.040,-92.529,207.520
-1.759,0.797,1.593,48.096,-96.313,197.327
-1.865,1.022,1.731,54.016,-67.200,186.218
-1.890,1.196,1.725,58.655,-25.879,164.673
-1.876,1.458,1.738,60.486,-2.563,139.893
-1.871,1.819,1.781,54.810,-0.671,118.652
-1.841,2.038,1.753,36.804,0.916,90.210
-1.748,2.081,1.653,15.503,8.667,50.293
-1.582,2.026,1.511,4.028,15.076,9.155
-1.380,1.817,1.354,1.282,16.785,-27.161
-1.120,1.506,1.212,1.953,14.404,-65.430
-0.786,1.054,1.051,-4.211,3.845,-105.652
-0.353,0.438,0.907,-24.597,-17.273,-140.808
0.106,-0.193,0.838,-49.683,-46.021,-159.546
0.521,-0.708,0.875,-62.439,-70.007,-154.602
0.811,-1.109,0.943,-53.711,-72.754,-133.484
0.980,-1.337,0.959,-28.625,-53.528,-107.971
1.040,-1.412,0.935,-0.793,-29.846,-83.252
1.023,-1.396,0.900,17.944,-12.573,-58.960
0.912,-1.266,0.865,26.367,-3.906,-32.471
0.735,-1.014,0.879,28.931,-2.930,-6.042
0.501,-0.714,0.918,29.968,-3.723,18.494
0.263,-0.465,0.936,28.931,-0.671,37.964
0.053,-0.273,0.963,25.269,0.732,49.744
-0.107,-0.126,1.022,19.714,-1.282,54.626
-0.253,-0.033,1.073,15.320,-1.221,54.443
-0.371,0.035,1.088,13.184,1.648,50.842
-0.432,0.057,1.084,11.902,3.723,42.419
-0.436,0.045,1.088,8.118,3.113,31.311
-0.411,0.014,1.089,0.671,-0.610,19.836
-0.358,-0.057,1.085,-8.057,-4.333,9.888
-0.282,-0.181,1.084,-14.526,-5.737,3.357
-0.193,-0.268,1.081,-15.137,-4.517,0.183
-0.113,-0.330,1.079,-11.414,0.061,-0.732
-0.042,-0.371,1.032,-7.629,7.812,-1.343
0.007,-0.362,0.977,-6.836,12.390,-0.244
0.004,-0.353,0.910,-10.864,12.207,3.296
0.002,-0.347,0.844,-14.954,9.583,5.066
0.008,-0.327,0.822,-14.832,4.517,4.944
0.000,-0.325,0.838,-10.498,0.427,6.287
0.002,-0.314,0.861,-4.456,-0.671,7.324
-0.001,-0.297,0.886,0.366,-1.587,7.874
-0.002,-0.296,0.905,3.967,-1.343,8.789
-0.010,-0.299,0.927,5.066,-1.770,9.766
-0.031,-0.291,0.974,5.310,-2.625,11.902
-0.067,-0.260,1.016,6.042,-0.610,14.771
-0.115,-0.227,1.026,6.042,3.662,16.174
-0.142,-0.204,1.015,2.380,6.165,13.855
-0.161,-0.206,0.974,-3.479,5.249,9.399
-0.161,-0.204,0.934,-8.728,1.709,4.517
-0.139,-0.220,0.919,-10.010,-2.686,-0.366
-0.116,-0.244,0.936,-7.690,-5.981,-4.272
-0.082,-0.284,0.950,-4.333,-6.531,-7.263
-0.037,-0.355,0.959,-3.235,-6.165,-9.399
0.024,-0.392,0.980,-5.554,-7.080,-9.583
0.055,-0.406,0.977,-7.507,-5.798,-6.958
0.065,-0.398,0.937,-8.911,-1.038,-2.930
0.052,-0.364,0.910,-10.986,2.075,1.038
0.025,-0.327,0.890,-11.780,3.662,4.211
-0.010,-0.299,0.868,-11.047,5.676,6.470
-0.047,-0.268,0.828,-7.141,7.202,7.202
-0.071,-0.238,0.807,-1.221,6.409,6.226
-0.078,-0.235,0.808,4.333,3.113,3.784
-0.085,-0.238,0.833,8.057,-1.587,0.549
-0.075,-0.252,0.878,11.719,-6.042,-2.014
-0.067,-0.276,0.945,13.062,-8.911,-3.174
-0.063,-0.299,1.000,10.132,-10.437,-2.075
-0.077,-0.288,1.053,5.127,-11.353,0.122
-0.101,-0.263,1.084,-0.061,-9.399,2.930
-0.133,-0.233,1.078,-5.188,-4.944,4.822
-0.163,-0.201,1.045,-9.033,0.366,5.249
-0.182,-0.170,0.991,-10.437,3.845,4.456
-0.198,-0.125,0.935,-9.888,4.761,1.343
-0.206,-0.109,0.872,-8.240,3.418,-3.540
-0.187,-0.168,0.835,-7.629,-0.977,-8.728
-0.123,-0.256,0.859,-8.057,-10.071,-15.625
-0.047,-0.346,0.925,-6.897,-19.226,-21.851
0.031,-0.449,0.984,-3.967,-21.973,-24.414
0.100,-0.526,1.016,-1.221,-19.226,-23.804
0.146,-0.575,1.027,0.183,-13.794,-19.226
0.145,-0.578,1.018,0.305,-8.301,-11.230
0.119,-0.547,1.001,0.427,-3.235,-2.197
0.080,-0.509,0.982,0.427,0.916,5.432
0.038,-0.463,0.968,0.916,3.723,10.925
-0.009,-0.408,0.953,2.930,5.798,14.404
-0.046,-0.371,0.952,5.615,6.714,15.991
-0.068,-0.349,0.962,6.531,5.249,15.503
-0.071,-0.328,0.971,5.005,1.587,13.428
-0.064,-0.324,0.986,1.953,-2.197,12.146
-0.063,-0.324,0.993,-1.160,-4.333,12.207
-1.292,0.928,1.635,10.681,149.414,252.930
-1.674,1.212,1.807,29.419,179.016,247.131
-2.101,1.510,1.917,31.982,195.679,230.591
-2.476,1.780,1.958,-14.465,170.471,203.430
-2.859,1.946,1.876,-112.183,114.502,157.837
-3.065,2.016,1.784,-232.788,51.697,96.924
-3.213,1.871,1.509,-341.736,-0.183,21.179
-3.125,1.690,0.964,-389.526,-27.039,-65.125
-2.963,1.870,0.369,-381.104,-54.138,-171.692
-2.794,1.533,-0.009,-305.603,-82.703,-303.467
-2.554,0.268,-0.178,-182.739,-124.573,-440.735
-1.765,-1.332,-0.393,-72.815,-179.016,-546.814
-0.870,-2.918,-0.406,6.287,-242.371,-596.375
0.801,-4.000,-0.151,82.458,-315.918,-583.618
3.117,-4.000,0.151,187.805,-389.038,-480.103
4.000,-4.000,1.332,195.251,-481.934,-311.584
4.000,-4.000,2.931,125.549,-543.884,-186.707
4.000,-4.000,3.979,109.741,-465.576,-138.550
4.000,-4.000,3.793,115.051,-213.318,-82.825
3.969,-4.000,2.814,91.797,67.139,68.115
2.002,-3.958,1.528,61.218,287.170,248.718
0.680,-2.663,0.074,71.899,437.134,333.252
0.147,-1.834,-0.885,95.825,429.138,316.467
-0.168,-1.447,-1.054,80.933,241.760,263.550
-0.324,-1.365,-0.646,44.922,-0.366,226.501
-0.449,-1.273,0.050,14.893,-173.157,214.111
-0.703,-1.026,0.824,1.404,-236.755,212.524
-1.079,-0.668,1.245,22.095,-203.918,221.375
-1.559,-0.198,1.453,57.983,-115.662,232.666
-2.057,0.370,1.510,85.083,-29.053,235.535
-2.440,0.864,1.609,107.605,25.208,223.145
-2.589,1.140,1.712,120.361,37.903,186.340
-2.630,1.357,1.879,105.835,14.771,132.812
-2.548,1.490,2.036,72.571,-22.095,82.642
-2.325,1.336,2.125,37.842,-40.100,27.710
-1.979,1.083,2.091,12.512,-36.926,-29.053
-1.570,0.796,1.968,0.549,-23.376,-70.618
-1.137,0.632,1.821,-8.301,-10.193,-88.074
-0.829,0.584,1.631,-21.667,-1.038,-85.571
-0.601,0.510,1.365,-41.138,7.629,-80.444
-0.391,0.333,1.061,-62.256,12.756,-87.463
-0.170,0.130,0.796,-75.745,5.737,-101.990
0.085,-0.105,0.620,-76.355,-10.437,-113.708
0.317,-0.295,0.569,-64.636,-28.687,-114.990
0.495,-0.498,0.595,-45.410,-41.809,-110.840
0.691,-0.708,0.627,-25.696,-39.429,-99.731
0.751,-0.815,0.690,-10.498,-32.593,-77.271
0.702,-0.817,0.781,-1.038,-27.283,-48.401
0.587,-0.734,0.864,4.578,-18.677,-22.156
0.434,-0.623,0.934,5.371,-8.789,-0.488
0.269,-0.507,0.932,3.540,1.221,14.160
0.097,-0.420,0.903,4.028,10.864,21.606
-0.046,-0.322,0.884,8.484,14.893,24.719
-0.189,-0.190,0.898,13.245,11.292,25.269
-0.296,-0.073,0.948,16.418,6.042,19.653
-0.325,-0.064,0.971,15.503,2.197,9.644
-0.336,-0.087,0.988,10.376,-1.709,0.793
-0.315,-0.139,1.011,4.456,-5.310,-5.737
-0.255,-0.214,1.032,1.526,-6.287,-12.817
-0.151,-0.314,1.037,2.625,-4.395,-17.639
-0.061,-0.381,1.063,2.563,-1.953,-16.968
-0.035,-0.377,1.086,-0.183,1.038,-12.451
-0.019,-0.377,1.019,-5.493,6.287,-9.644
-0.005,-0.389,0.929,-11.841,10.132,-9.277
-0.003,-0.380,0.856,-13.794,9.521,-8.301
-0.008,-0.360,0.797,-10.437,6.836,-9.399
-0.004,-0.330,0.786,-4.578,2.197,-12.878
0.015,-0.323,0.799,-0.122,-3.235,-16.724
0.001,-0.316,0.828,1.038,-8.423,-17.578
0.024,-0.340,0.861,2.197,-10.254,-15.747
0.030,-0.353,0.902,4.028,-9.644,-11.108
0.017,-0.354,0.938,6.104,-5.920,-4.700
0.010,-0.376,0.954,7.324,0.305,-0.610
0.001,-0.389,0.970,7.874,4.333,1.404
-0.016,-0.383,0.985,9.033,6.470,3.174
-0.021,-0.388,0.978,11.047,8.179,3.174
-0.025,-0.371,0.963,10.925,7.690,0.305
-0.049,-0.323,0.964,7.629,3.479,-1.465
-0.066,-0.309,0.958,1.221,-1.831,-2.930
-0.050,-0.331,0.966,-4.272,-6.104,-5.493
-0.047,-0.318,1.005,-5.920,-7.874,-6.042
-0.053,-0.300,1.026,-4.028,-3.662,-4.211
-0.060,-0.299,1.006,-1.282,4.639,-2.625
-0.056,-0.295,0.967,0.488,11.169,-3.113
-0.062,-0.294,0.915,1.648,13.672,-3.662
-0.053,-0.308,0.868,1.343,12.024,-4.395
-0.028,-0.331,0.839,-2.563,5.066,-7.202
-0.013,-0.347,0.831,-7.935,-4.333,-10.132
-0.007,-0.351,0.842,-11.169,-12.085,-12.207
-0.006,-0.359,0.888,-11.597,-17.151,-12.085
-0.005,-0.356,0.937,-10.132,-17.334,-10.498
-0.036,-0.333,0.968,-7.996,-12.939,-6.531
-0.076,-0.315,0.981,-6.470,-7.568,-2.991
-0.116,-0.289,0.999,-7.019,-4.089,-1.404
-0.167,-0.261,0.997,-9.399,-2.747,-2.075
-0.176,-0.252,0.969,-13.733,-3.601,-6.653
-0.134,-0.301,0.953,-18.250,-7.935,-14.282
-0.066,-0.371,0.956,-20.386,-11.963,-20.386
0.000,-0.435,0.974,-17.822,-11.963,-23.132
0.074,-0.502,0.973,-11.841,-6.409,-22.095
0.118,-0.536,0.975,-3.967,2.502,-16.418
0.145,-0.533,0.965,3.967,11.902,-7.324
0.120,-0.481,0.953,9.155,19.165,0.732
0.084,-0.422,0.928,10.193,23.499,6.409
0.039,-0.367,0.908,7.019,23.193,9.338
0.003,-0.330,0.897,2.319,18.311,9.521
-0.027,-0.315,0.887,-1.831,11.230,7.935
-0.043,-0.301,0.903,-4.578,3.723,5.249
-0.057,-0.304,0.936,-4.333,-2.380,2.930
-0.045,-0.333,0.965,-2.563,-5.005,0.977
-0.044,-0.345,1.004,-1.404,-6.409,1.282
-0.057,-0.333,1.040,-0.366,-5.737,3.784
-0.077,-0.315,1.058,0.427,-1.892,6.470
-0.102,-0.292,1.062,0.122,2.563,7.935
-0.121,-0.265,1.053,-0.549,6.653,7.385
-0.132,-0.254,1.030,-1.587,8.911,6.042
-0.132,-0.263,0.995,-4.333,8.972,4.028
-0.121,-0.272,0.967,-8.240,5.371,0.549
-0.106,-0.294,0.954,-11.353,-0.061,-3.235
-0.641,0.980,1.771,-89.050,19.043,90.515
-0.947,1.416,1.987,-103.210,33.691,115.662
-1.466,1.826,2.146,-120.972,64.331,150.085
-2.149,2.142,2.153,-164.246,98.938,185.852
-2.945,2.117,1.750,-259.644,127.991,213.928
-3.686,2.090,1.066,-409.119,142.578,208.862
-4.000,2.062,0.147,-544.922,143.250,153.870
-3.994,2.437,-0.773,-589.844,108.276,41.321
-3.774,2.828,-1.601,-490.234,53.650,-117.004
-3.530,2.508,-2.017,-288.513,-39.795,-281.128
-2.929,0.804,-1.952,-70.618,-188.293,-447.571
-1.846,-2.646,-1.085,124.146,-346.436,-582.886
0.525,-4.000,0.337,314.880,-489.807,-632.751
2.802,-4.000,2.252,435.669,-604.736,-546.570
3.997,-4.000,4.000,369.751,-711.792,-357.727
4.000,-4.000,4.000,221.619,-759.155,-185.547
4.000,-4.000,4.000,119.263,-569.031,-63.354
3.990,-4.000,4.000,43.762,-103.577,41.199
2.167,-4.000,3.341,-36.255,324.158,154.297
0.148,-3.226,0.701,-92.163,528.320,269.226
-0.472,-1.695,-1.063,-93.384,549.561,309.265
-0.478,-1.014,-1.252,-30.823,423.889,274.902
-0.608,-1.037,-0.915,49.377,205.200,213.623
-0.477,-1.103,-0.329,74.829,-0.427,175.659
-0.444,-1.079,0.325,46.631,-121.033,164.001
-0.576,-0.935,0.707,13.184,-142.151,164.856
-0.801,-0.721,0.926,1.709,-118.896,180.176
-1.105,-0.443,1.041,18.127,-73.853,199.036
-1.433,-0.042,1.120,46.143,-24.963,210.144
-1.699,0.323,1.167,68.176,11.536,212.830
-1.905,0.677,1.225,78.430,34.180,202.332
-2.009,0.943,1.268,83.435,46.204,176.514
-2.050,1.161,1.303,84.900,49.988,145.630
-2.042,1.386,1.376,78.979,39.429,117.310
-1.968,1.556,1.463,60.181,18.005,88.928
-1.888,1.650,1.482,33.081,0.122,58.350
-1.777,1.680,1.432,11.414,-4.578,27.283
-1.640,1.651,1.322,6.531,4.944,-3.540
-1.466,1.537,1.173,15.259,20.630,-34.241
-1.256,1.369,1.026,23.621,29.724,-63.110
-1.000,1.136,0.872,22.034,26.245,-93.689
-0.700,0.787,0.719,9.338,9.583,-125.610
-0.390,0.355,0.632,-7.080,-15.076,-152.710
-0.055,-0.057,0.658,-16.968,-42.786,-167.847
0.231,-0.453,0.767,-16.602,-66.650,-169.495
0.505,-0.780,0.914,-8.484,-76.782,-159.790
0.703,-0.999,1.046,3.113,-72.815,-139.587
0.830,-1.113,1.151,12.024,-57.129,-112.366
0.869,-1.136,1.163,17.273,-33.508,-80.872
0.796,-1.053,1.122,19.836,-10.498,-50.598
0.667,-0.935,1.034,21.301,7.385,-26.001
0.520,-0.785,0.976,21.301,15.991,-5.676
0.366,-0.629,0.953,20.569,17.395,8.484
0.237,-0.477,0.944,19.592,14.526,17.700
0.103,-0.370,0.934,19.043,11.169,22.400
0.005,-0.283,0.926,18.127,9.094,24.353
-0.062,-0.222,0.939,17.822,6.287,25.452
-0.135,-0.164,0.976,17.700,4.211,27.100
-0.197,-0.106,1.027,17.944,5.188,27.466
-0.245,-0.064,1.063,17.639,8.972,26.062
-0.260,-0.067,1.050,14.771,12.085,23.499
-0.276,-0.084,1.036,8.484,11.536,19.043
-0.271,-0.101,1.025,2.808,8.911,13.550
-0.265,-0.128,1.000,-0.122,6.592,7.935
-0.225,-0.159,0.993,-2.014,1.648,1.221
-0.182,-0.202,1.007,-5.005,-5.920,-5.615
-0.134,-0.239,1.016,-7.629,-11.902,-12.268
-0.068,-0.306,1.001,-7.080,-14.526,-16.541
0.005,-0.363,0.985,-3.601,-14.282,-16.357
0.049,-0.366,0.997,0.061,-12.939,-11.658
0.052,-0.336,1.006,1.038,-7.812,-4.761
0.022,-0.301,0.972,-0.061,0.916,0.977
-0.013,-0.294,0.900,-1.160,7.812,3.662
-0.023,-0.283,0.833,-2.319,9.155,2.258
-0.006,-0.289,0.829,-4.517,3.296,-0.977
0.002,-0.285,0.861,-6.348,-4.150,-2.563
-0.014,-0.253,0.889,-5.981,-7.324,-1.892
-0.045,-0.257,0.875,-2.441,-4.028,0.305
-0.055,-0.249,0.852,2.869,0.000,0.793
-0.058,-0.232,0.872,7.751,-0.977,0.610
-0.073,-0.211,0.917,8.911,-3.845,1.038
-0.096,-0.189,0.948,7.874,-4.150,1.038
-0.126,-0.183,0.941,8.362,-1.038,0.549
-0.119,-0.181,0.919,9.216,3.723,-1.892
-0.096,-0.190,0.912,5.737,2.502,-5.676
-0.082,-0.214,0.927,-2.075,-4.028,-8.911
-0.060,-0.256,0.937,-9.583,-9.521,-11.108
-0.039,-0.308,0.923,-13.306,-11.292,-12.268
-0.015,-0.355,0.900,-11.047,-9.094,-12.085
0.007,-0.385,0.881,-3.662,-4.883,-9.705
0.024,-0.390,0.869,5.249,-1.831,-6.104
0.031,-0.376,0.882,12.451,-0.122,-2.747
0.033,-0.353,0.910,16.479,0.732,0.488
0.016,-0.321,0.948,16.296,0.244,3.113
-0.012,-0.285,0.970,13.245,0.366,3.601
-0.025,-0.281,0.960,9.216,0.183,2.747
-0.042,-0.295,0.979,5.066,-2.441,2.136
-0.056,-0.301,1.000,2.075,-4.639,1.831
-0.073,-0.316,1.009,0.977,-4.883,1.038
-0.075,-0.329,1.019,2.014,-3.784,0.000
-0.068,-0.345,1.021,3.723,-1.953,-0.183
-0.068,-0.333,1.028,5.798,0.122,0.366
-0.071,-0.329,1.023,8.118,2.197,1.221
-0.066,-0.332,1.033,8.057,3.235,2.014
-0.060,-0.322,1.064,4.700,3.174,2.563
-0.066,-0.314,1.082,0.122,3.418,3.784
-0.077,-0.315,1.064,-4.089,6.409,4.883
-0.073,-0.326,1.013,-7.446,8.789,4.883
-0.060,-0.342,0.971,-9.399,8.423,3.845
-0.036,-0.348,0.945,-9.705,5.981,2.869
-0.018,-0.346,0.934,-8.606,3.174,1.770
-0.003,-0.341,0.927,-7.446,1.038,1.587
0.007,-0.344,0.924,-5.981,-0.122,2.136
0.011,-0.352,0.920,-3.784,-1.099,3.601
0.017,-0.360,0.921,-1.526,-1.648,5.737
0.017,-0.373,0.926,2.258,-1.404,8.606
0.026,-0.390,0.929,6.775,0.244,11.597
0.047,-0.417,0.919,10.986,2.563,14.709
0.072,-0.466,0.899,17.639,6.104,19.836
-0.940,0.429,2.086,109.863,108.948,100.342
-1.383,0.844,2.653,157.471,158.020,122.314
-1.943,1.389,3.223,213.196,227.051,130.798
-2.362,1.845,3.529,227.051,293.335,98.328
-2.574,1.961,3.483,143.372,319.580,15.930
-2.694,1.667,3.137,-48.706,279.663,-91.187
-2.670,1.087,2.627,-282.593,191.650,-189.453
-2.600,0.530,2.167,-475.037,89.844,-268.066
-2.494,0.078,1.713,-594.543,3.235,-333.191
-2.204,-0.470,1.145,-669.739,-67.993,-392.639
-1.764,-1.302,0.587,-729.187,-143.921,-441.895
-1.103,-2.191,0.074,-746.460,-231.018,-460.022
-0.341,-2.940,-0.026,-696.106,-315.186,-447.693
0.453,-3.986,0.189,-532.104,-329.651,-419.678
1.362,-4.000,0.266,-272.522,-257.385,-380.188
2.457,-4.000,0.622,20.325,-162.842,-318.604
3.435,-4.000,1.408,274.963,-114.014,-229.248
4.000,-4.000,2.445,361.755,-123.657,-135.437
4.000,-4.000,2.965,258.667,-147.339,-41.626
3.634,-4.000,2.975,88.257,-105.469,80.933
2.111,-4.000,2.053,-14.893,43.152,203.247
0.677,-3.552,0.476,-20.691,240.234,276.672
-0.136,-2.683,-0.818,32.104,346.741,293.213
-0.432,-2.098,-1.108,97.839,291.443,282.349
-0.706,-1.741,-0.754,148.865,137.695,267.029
-0.844,-1.348,-0.124,146.057,-21.423,246.887
-0.876,-0.938,0.416,86.487,-127.075,227.356
-1.020,-0.609,0.777,23.987,-163.818,219.604
-1.332,-0.139,1.100,3.113,-149.353,232.117
-1.750,0.426,1.276,32.349,-98.938,258.362
-2.121,0.933,1.335,78.491,-36.377,274.475
-2.392,1.288,1.400,107.544,0.427,259.888
-2.476,1.544,1.548,108.887,-1.465,213.989
-2.451,1.759,1.767,90.027,-26.062,152.649
-2.319,1.896,1.918,59.448,-53.040,97.046
-2.118,1.875,1.985,21.973,-72.815,47.913
-1.909,1.725,1.941,-13.062,-79.468,5.615
-1.633,1.478,1.795,-39.612,-73.730,-32.166
-1.311,1.138,1.603,-54.016,-64.697,-69.275
-0.923,0.712,1.427,-57.678,-55.908,-103.699
-0.537,0.330,1.313,-55.176,-52.124,-131.042
-0.176,-0.025,1.205,-49.377,-52.246,-148.132
0.171,-0.417,1.099,-46.387,-52.979,-154.236
0.484,-0.780,1.020,-47.913,-55.664,-150.940
0.741,-1.024,0.998,-47.852,-59.082,-137.878
0.875,-1.142,1.018,-42.114,-57.190,-117.126
0.951,-1.143,1.012,-27.100,-42.175,-89.478
0.911,-1.063,0.956,-6.531,-17.273,-55.908
0.782,-0.959,0.873,10.315,8.362,-25.024
0.621,-0.838,0.807,22.156,26.978,-2.991
0.439,-0.653,0.774,32.288,35.767,11.658
0.257,-0.436,0.764,40.588,36.499,22.461
0.087,-0.236,0.796,41.992,31.494,29.846
-0.062,-0.099,0.832,33.569,24.048,31.921
-0.179,-0.030,0.833,20.569,17.151,30.090
-0.250,-0.004,0.859,11.230,9.277,24.902
-0.269,-0.031,0.902,10.071,2.258,17.761
-0.272,-0.059,0.982,15.747,-1.526,12.207
-0.275,-0.117,1.067,23.621,-0.977,8.789
-0.249,-0.151,1.144,26.794,4.517,5.310
-0.222,-0.191,1.175,23.865,10.681,1.160
-0.178,-0.218,1.175,16.235,12.878,-2.075
-0.151,-0.263,1.133,5.310,12.268,-4.150
-0.125,-0.300,1.047,-7.751,9.338,-6.470
-0.080,-0.344,0.995,-20.203,2.136,-10.193
-0.029,-0.385,0.980,-29.846,-4.211,-13.916
0.022,-0.422,0.966,-31.311,-5.066,-14.771
0.053,-0.450,0.924,-24.780,0.183,-11.169
0.073,-0.500,0.826,-14.709,7.568,-5.249
0.075,-0.484,0.769,-5.310,10.437,-0.916
0.070,-0.431,0.761,4.700,12.146,1.099
0.071,-0.385,0.765,15.747,13.428,3.906
0.050,-0.335,0.784,23.071,12.512,6.958
0.009,-0.316,0.784,24.963,10.315,9.521
-0.007,-0.271,0.815,19.409,2.075,7.080
-0.001,-0.270,0.870,6.165,-10.010,0.122
-0.002,-0.282,0.916,-5.066,-17.212,-3.845
-0.032,-0.262,0.969,-7.996,-18.005,-3.113
-0.071,-0.260,0.972,-2.808,-11.414,-0.366
-0.082,-0.324,0.932,6.165,-1.282,0.000
-0.057,-0.344,0.941,12.634,3.296,-2.441
-0.036,-0.360,0.991,14.893,1.587,-4.150
-0.029,-0.355,1.050,14.099,-0.244,-4.578
-0.023,-0.363,1.072,12.268,0.854,-2.808
-0.032,-0.394,1.036,9.949,5.127,-0.732
-0.028,-0.397,0.971,6.226,8.118,-2.014
-0.012,-0.390,0.937,-1.404,4.333,-4.822
-0.010,-0.366,0.944,-11.658,-3.479,-7.080
-0.026,-0.328,0.965,-19.104,-8.911,-7.385
-0.047,-0.294,0.955,-20.447,-7.507,-5.615
-0.056,-0.309,0.908,-16.602,-1.587,-4.089
-0.039,-0.357,0.845,-10.925,4.761,-3.784
-0.016,-0.367,0.789,-4.456,7.507,-5.554
-0.000,-0.377,0.778,1.770,5.249,-6.775
0.007,-0.404,0.797,6.592,1.343,-7.446
0.024,-0.441,0.817,10.803,-1.587,-8.301
0.048,-0.460,0.858,13.855,-4.272,-9.216
0.076,-0.478,0.902,13.000,-6.836,-9.399
0.101,-0.503,0.954,8.057,-9.705,-7.629
0.099,-0.511,0.986,2.319,-11.414,-3.296
0.074,-0.501,1.005,-0.671,-9.460,2.502
0.040,-0.475,1.003,0.244,-3.540,7.324
0.009,-0.456,0.985,4.028,3.967,10.010
0.003,-0.453,0.957,7.996,8.850,10.986
0.000,-0.437,0.957,11.719,9.155,10.620
-0.000,-0.411,0.959,14.893,8.057,10.498
-0.003,-0.374,0.965,14.771,5.737,9.888
-0.007,-0.343,0.957,8.972,1.587,7.568
-0.015,-0.315,0.960,-0.610,-5.249,5.432
-0.034,-0.292,0.961,-8.911,-10.864,4.028
-0.044,-0.291,0.955,-12.695,-12.695,3.479
-0.060,-0.276,0.945,-12.573,-10.864,3.235
-0.082,-0.263,0.930,-10.193,-6.653,3.418
-0.082,-0.279,0.909,-7.080,-2.441,2.930
-0.074,-0.299,0.902,-3.967,0.000,1.099
-0.067,-0.317,0.900,-0.183,1.099,-0.549
-0.056,-0.338,0.894,3.235,1.465,-2.136
-0.032,-0.362,0.890,4.028,0.122,-3.662
-0.004,-0.396,0.899,1.160,-3.845,-4.761
-0.817,1.344,1.743,134.033,123.108,16.663
-1.153,1.828,2.056,158.813,156.250,22.217
-1.486,2.193,2.316,155.334,186.707,23.804
-1.870,2.441,2.442,102.295,195.007,14.893
-2.148,2.474,2.400,-17.883,158.142,-18.921
-2.310,2.197,2.168,-191.711,91.736,-75.867
-2.373,1.775,1.759,-367.187,20.020,-142.822
-2.390,1.275,1.361,-483.765,-42.358,-209.106
-2.306,0.758,0.970,-526.917,-94.604,-269.897
-2.126,0.178,0.635,-513.000,-123.962,-325.867
-1.736,-0.799,0.366,-449.158,-140.625,-370.056
-0.975,-1.842,0.276,-363.220,-176.941,-373.474
-0.404,-2.577,0.524,-269.165,-233.459,-323.303
-0.134,-3.260,0.977,-148.804,-245.178,-259.399
0.140,-3.835,1.307,-2.014,-186.890,-219.421
0.653,-4.000,1.555,129.089,-110.901,-228.943
1.499,-4.000,1.610,207.214,-80.688,-260.315
2.555,-4.000,1.995,216.980,-138.611,-252.258
3.582,-4.000,3.027,176.514,-248.901,-136.047
2.955,-4.000,3.767,142.578,-328.918,19.165
2.269,-4.000,4.000,40.771,-230.408,55.603
1.845,-4.000,3.108,-3.357,54.321,110.901
0.855,-3.754,1.482,18.433,321.289,192.505
-0.060,-2.886,0.075,57.312,449.341,251.221
-0.645,-1.995,-0.627,111.267,436.890,271.362
-0.740,-1.617,-0.783,152.649,322.632,253.906
-0.497,-1.655,-0.644,150.269,146.973,227.966
-0.383,-1.512,-0.282,93.201,-25.574,215.149
-0.377,-1.228,0.035,25.024,-127.258,209.045
-0.471,-0.998,0.302,-5.066,-164.978,209.839
-0.700,-0.643,0.571,8.606,-156.311,225.464
-1.129,-0.104,0.886,50.537,-110.046,255.981
-1.507,0.277,1.122,116.577,-39.856,279.602
-1.756,0.572,1.307,186.584,21.912,272.339
-1.868,0.854,1.478,236.511,56.519,247.498
-1.870,1.126,1.661,249.573,57.007,215.149
-1.853,1.332,1.914,218.445,24.658,174.194
-1.774,1.443,2.171,153.503,-17.944,133.972
-1.644,1.464,2.333,76.660,-57.373,102.783
-1.521,1.460,2.390,8.362,-75.806,77.942
-1.428,1.425,2.313,-33.997,-63.354,62.378
-1.346,1.387,2.140,-48.645,-28.015,50.354
-1.250,1.306,1.875,-43.640,14.587,34.302
-1.121,1.183,1.534,-33.691,50.049,11.475
-0.950,1.020,1.188,-31.189,66.101,-19.714
-0.684,0.779,0.903,-36.987,57.678,-58.655
-0.429,0.439,0.704,-50.049,31.067,-100.830
-0.063,0.019,0.590,-64.514,-2.991,-131.775
0.290,-0.411,0.611,-74.158,-38.208,-141.846
0.597,-0.774,0.678,-76.904,-64.148,-130.249
0.774,-0.989,0.760,-72.449,-73.120,-106.018
0.891,-1.130,0.757,-58.228,-58.533,-79.224
0.915,-1.221,0.714,-34.912,-30.762,-56.580
0.893,-1.179,0.676,-7.812,-4.761,-35.400
0.779,-1.038,0.674,18.860,11.169,-12.390
0.621,-0.858,0.690,38.879,18.982,7.874
0.445,-0.663,0.728,47.058,19.714,19.165
0.284,-0.492,0.793,41.748,11.475,22.095
0.160,-0.370,0.858,27.405,-2.014,21.667
0.047,-0.289,0.923,12.756,-12.939,20.264
-0.035,-0.252,0.993,4.944,-16.296,20.874
-0.108,-0.213,1.033,4.883,-11.353,22.339
-0.164,-0.189,1.058,10.742,-1.404,22.400
-0.183,-0.208,1.064,18.005,8.362,20.935
-0.193,-0.241,1.079,23.193,14.099,16.357
-0.181,-0.255,1.106,25.146,15.320,9.644
-0.154,-0.269,1.095,22.827,14.343,1.160
-0.094,-0.328,1.079,11.963,8.362,-7.385
-0.005,-0.404,1.059,-5.188,-2.197,-13.245
0.056,-0.471,1.056,-22.949,-13.489,-14.343
0.115,-0.529,1.040,-34.058,-17.761,-11.780
0.160,-0.563,1.001,-33.508,-11.963,-7.812
0.188,-0.564,0.958,-23.315,-1.160,-2.869
0.189,-0.553,0.907,-9.644,10.193,3.296
0.185,-0.505,0.870,0.854,18.860,8.667
0.146,-0.427,0.849,7.385,21.729,12.451
0.113,-0.378,0.821,10.742,21.484,14.160
0.093,-0.349,0.776,8.789,18.005,11.292
0.102,-0.323,0.776,-0.183,6.409,3.906
0.093,-0.304,0.834,-11.963,-10.010,-1.953
0.077,-0.307,0.895,-18.188,-19.348,-4.211
0.067,-0.335,0.925,-16.113,-18.127,-4.639
0.068,-0.338,0.950,-7.935,-10.925,-3.174
0.061,-0.327,0.947,1.465,-1.831,0.000
0.050,-0.333,0.934,8.240,6.165,3.052
0.026,-0.336,0.909,12.268,10.376,4.883
0.005,-0.319,0.906,13.184,9.216,4.517
0.014,-0.309,0.919,7.996,2.441,-0.183
0.045,-0.320,0.931,-4.150,-7.507,-6.958
0.071,-0.346,0.940,-18.066,-18.433,-11.841
0.086,-0.371,0.945,-27.039,-25.269,-14.709
0.118,-0.408,0.945,-27.161,-24.536,-14.709
0.130,-0.438,0.944,-20.935,-18.311,-10.803
0.128,-0.422,0.945,-11.353,-9.155,-5.920
0.110,-0.399,0.935,-1.404,0.244,-1.587
0.089,-0.378,0.934,6.165,7.202,2.136
0.072,-0.362,0.932,10.803,11.047,4.761
0.054,-0.355,0.932,12.451,11.902,6.653
0.047,-0.330,0.938,11.658,9.766,6.653
0.025,-0.294,0.951,9.216,6.958,5.127
0.001,-0.256,0.959,6.165,4.944,3.235
-0.024,-0.222,0.965,3.906,3.967,1.770
-0.058,-0.194,0.974,3.296,3.967,0.305
-0.078,-0.191,0.982,4.761,5.493,-1.404
-0.077,-0.210,0.973,7.446,7.812,-3.174
-0.062,-0.249,0.969,11.230,9.399,-5.249
-0.036,-0.296,0.953,16.235,10.132,-7.263
0.012,-0.364,0.943,20.325,9.094,-9.338
0.082,-0.429,0.925,20.996,6.348,-11.108
0.148,-0.462,0.923,16.113,1.221,-11.780
0.182,-0.480,0.952,5.554,-7.141,-11.353
0.215,-0.524,0.952,-8.057,-13.245,-10.925
0.246,-0.571,0.917,-20.752,-16.052,-11.108
0.274,-0.612,0.875,-28.381,-18.372,-10.193
0.305,-0.664,0.840,-28.809,-18.799,-7.446
0.333,-0.700,0.816,-22.705,-16.724,-2.991
0.336,-0.697,0.824,-12.512,-13.733,3.479
0.315,-0.667,0.851,-0.671,-10.132,10.986
0.295,-0.637,0.878,8.850,-6.348,17.151
-0.824,0.974,2.103,108.521,142.334,103.638
-1.185,1.523,2.463,99.670,157.532,106.995
-1.549,1.950,2.689,54.749,158.020,91.736
-1.962,2.221,2.743,-42.480,143.127,54.382
-2.253,2.212,2.500,-173.645,117.676,0.488
-2.435,1.995,2.022,-309.753,88.928,-66.956
-2.516,1.638,1.404,-411.621,65.186,-147.827
-2.480,1.309,0.804,-457.153,46.021,-233.032
-2.313,0.913,0.149,-457.703,16.907,-318.298
-2.178,0.362,-0.451,-435.913,-41.321,-402.405
-1.689,-0.881,-0.787,-394.958,-136.292,-470.886
-0.781,-2.732,-0.863,-341.370,-268.738,-506.226
0.256,-4.000,-0.355,-306.824,-449.768,-515.808
1.354,-4.000,0.856,-246.460,-622.803,-448.608
2.248,-4.000,2.654,-132.935,-684.326,-310.120
2.835,-4.000,4.000,16.602,-583.374,-164.856
2.956,-4.000,4.000,149.902,-348.816,-52.979
2.834,-4.000,4.000,218.140,-38.330,21.912
2.148,-4.000,3.429,213.013,228.394,96.130
0.775,-3.378,2.164,164.185,376.038,192.993
-0.473,-1.785,0.880,147.217,458.923,267.151
-0.833,-0.763,-0.247,185.791,485.107,273.315
-0.833,-0.511,-0.613,219.116,397.827,220.886
-0.730,-0.703,-0.486,220.032,232.422,156.250
-0.481,-0.950,-0.125,174.622,56.030,108.215
-0.309,-1.133,0.268,92.224,-81.482,75.073
-0.170,-1.292,0.599,10.864,-171.204,59.631
-0.097,-1.400,0.863,-42.847,-214.722,63.477
-0.120,-1.433,0.999,-58.533,-212.097,76.843
-0.183,-1.433,1.021,-47.852,-178.528,86.487
-0.282,-1.310,1.021,-21.912,-139.587,93.628
-0.387,-1.086,1.059,5.798,-112.671,94.299
-0.509,-0.832,1.107,29.785,-93.201,95.398
-0.656,-0.543,1.269,41.199,-78.430,99.548
-0.730,-0.249,1.379,44.556,-70.313,99.609
-0.693,-0.029,1.429,36.438,-67.932,100.708
-0.581,0.201,1.424,4.272,-67.688,103.760
-0.517,0.496,1.475,-36.011,-66.833,114.258
-0.545,0.879,1.540,-59.448,-52.795,136.536
-0.705,1.372,1.553,-52.307,-15.442,165.100
-1.081,1.968,1.564,-8.484,45.288,195.801
-1.689,2.531,1.531,67.932,115.845,220.093
-2.272,3.125,1.406,141.479,167.725,212.830
-2.403,3.248,1.200,162.354,177.063,143.860
-2.113,2.779,0.958,103.943,126.526,21.729
-1.553,1.930,0.899,-15.747,19.714,-100.098
-0.979,0.988,0.993,-142.456,-96.252,-182.983
-0.440,0.078,1.146,-221.802,-173.035,-222.351
0.016,-0.774,1.292,-229.370,-189.819,-224.060
0.434,-1.370,1.317,-174.744,-152.771,-199.402
0.736,-1.642,1.208,-99.487,-93.384,-159.180
0.872,-1.728,1.111,-48.584,-43.335,-119.568
0.879,-1.688,1.046,-24.536,-10.376,-86.060
0.819,-1.535,0.963,-7.141,8.057,-57.068
0.736,-1.318,0.885,-0.427,16.785,-32.532
0.607,-1.082,0.858,-6.287,15.503,-15.930
0.498,-0.874,0.823,-12.634,12.451,-1.953
0.372,-0.657,0.807,-11.658,14.526,10.925
0.235,-0.454,0.743,-1.953,22.766,20.935
0.079,-0.272,0.728,11.475,26.794,28.015
-0.023,-0.163,0.759,22.522,26.184,33.264
-0.081,-0.086,0.816,29.846,26.428,34.424
-0.124,-0.032,0.869,33.936,22.827,33.081
-0.180,-0.021,0.929,31.921,16.663,29.907
-0.205,-0.020,0.967,23.621,9.155,25.208
-0.241,-0.020,1.017,12.329,-0.061,18.738
-0.257,-0.078,1.051,2.441,-6.836,11.475
-0.220,-0.157,1.048,-3.967,-8.545,2.380
-0.173,-0.229,1.042,-4.456,-7.751,-4.944
-0.133,-0.284,1.036,0.122,-5.676,-8.362
-0.083,-0.322,1.042,4.700,-4.456,-9.888
-0.047,-0.336,1.056,4.333,-3.540,-10.925
-0.016,-0.351,1.055,0.488,-2.625,-10.132
0.007,-0.369,1.027,-4.395,-0.732,-8.423
0.026,-0.356,0.999,-8.545,1.038,-7.141
0.043,-0.358,0.958,-12.268,2.380,-5.493
0.058,-0.359,0.927,-15.076,3.601,-4.272
0.070,-0.375,0.883,-15.442,5.798,-2.869
0.076,-0.363,0.844,-13.062,7.019,-1.892
0.073,-0.344,0.836,-9.705,6.714,-1.953
0.070,-0.316,0.841,-5.188,5.737,-1.770
0.048,-0.291,0.849,-0.061,4.761,-0.854
0.032,-0.295,0.827,4.822,4.700,-0.610
0.036,-0.266,0.847,8.301,3.235,-1.282
0.025,-0.236,0.891,8.850,-0.305,-1.831
0.014,-0.213,0.923,6.348,-2.930,-2.441
-0.014,-0.201,0.940,3.357,-4.028,-2.625
-0.033,-0.223,0.939,2.014,-3.418,-2.563
-0.026,-0.252,0.947,2.258,-2.808,-3.357
-0.015,-0.269,0.981,3.540,-2.930,-4.272
-0.008,-0.283,1.006,5.310,-0.916,-3.906
-0.003,-0.319,1.000,6.592,2.808,-3.479
0.021,-0.350,0.976,6.226,5.249,-3.723
0.036,-0.365,0.964,4.517,4.028,-3.418
0.052,-0.367,0.950,3.357,2.319,-2.563
0.059,-0.377,0.945,3.540,1.160,-2.380
0.077,-0.388,0.945,4.089,0.549,-1.648
0.090,-0.382,0.961,2.563,-0.793,-0.854
0.094,-0.369,0.972,-1.404,-2.136,0.732
0.085,-0.374,0.966,-4.395,-1.343,2.502
0.080,-0.381,0.934,-5.310,1.221,4.761
0.062,-0.372,0.916,-3.235,2.319,7.446
0.051,-0.367,0.910,0.244,2.625,9.155
0.049,-0.365,0.912,3.174,2.197,9.399
0.047,-0.359,0.922,5.310,0.610,9.460
0.040,-0.349,0.933,7.751,0.000,9.827
0.036,-0.340,0.945,9.033,-0.061,10.559
0.034,-0.335,0.957,7.935,-1.221,10.864
0.029,-0.328,0.975,5.310,-3.174,11.230
0.021,-0.311,0.997,2.563,-3.967,11.475
0.004,-0.301,1.005,0.793,-3.052,11.780
-0.000,-0.297,0.995,0.061,-0.610,11.353
0.004,-0.306,0.974,-0.061,1.404,10.437
0.013,-0.325,0.949,0.610,2.258,9.521
0.040,-0.353,0.929,2.319,2.625,7.812
0.080,-0.394,0.904,3.662,2.075,6.287
0.125,-0.441,0.896,3.235,-0.183,5.981
0.168,-0.471,0.911,1.160,-3.723,6.226
0.192,-0.477,0.943,-1.465,-6.592,8.545
-0.619,1.424,1.809,92.529,78.796,35.522
-0.848,1.868,2.021,97.351,102.600,36.377
-1.105,2.220,2.231,92.529,128.479,29.358
-1.368,2.426,2.369,63.782,142.700,15.625
-1.588,2.474,2.317,-0.061,152.466,-14.954
-1.749,2.331,2.077,-89.294,154.297,-57.983
-1.849,2.014,1.765,-183.472,141.785,-105.103
-1.907,1.598,1.421,-263.428,118.103,-152.466
-1.958,1.147,1.070,-314.697,94.238,-200.378
-1.891,0.695,0.759,-332.458,73.853,-247.070
-1.802,0.203,0.477,-322.449,61.584,-295.044
-1.737,-0.292,0.231,-296.692,44.678,-345.337
-1.595,-0.961,0.038,-260.193,13.611,-383.911
-1.120,-2.126,-0.134,-224.243,-39.124,-393.433
-0.537,-3.585,-0.283,-207.642,-129.822,-356.079
0.156,-4.000,0.090,-216.003,-271.912,-295.898
0.376,-4.000,0.920,-159.607,-394.226,-225.281
0.919,-4.000,1.732,-30.884,-421.570,-151.428
1.560,-4.000,3.123,94.177,-394.653,-107.178
2.828,-4.000,3.920,221.619,-314.514,-26.733
2.667,-4.000,4.000,275.269,-177.917,17.090
2.453,-4.000,3.876,181.885,25.146,44.250
1.697,-4.000,2.509,82.581,234.924,143.250
0.470,-3.454,0.916,18.066,383.301,240.601
-0.245,-2.438,-0.418,1.648,427.063,285.706
-0.503,-1.605,-0.864,19.043,338.135,276.001
-0.623,-1.204,-0.765,49.927,166.687,237.061
-0.399,-1.138,-0.382,67.261,1.465,196.106
-0.216,-1.168,0.050,47.180,-116.150,169.312
-0.184,-1.050,0.439,20.142,-183.960,170.410
-0.337,-0.826,0.738,1.587,-207.581,179.016
-0.504,-0.594,0.915,-1.526,-191.833,183.655
-0.694,-0.432,1.008,5.981,-155.701,191.711
-0.937,-0.248,1.075,18.494,-114.990,201.172
-1.184,-0.012,1.192,40.588,-78.674,208.313
-1.402,0.290,1.351,72.144,-49.866,213.745
-1.578,0.630,1.528,106.018,-25.940,219.055
-1.662,0.966,1.700,134.338,-4.028,216.125
-1.694,1.300,1.851,151.489,13.489,197.449
-1.653,1.549,1.910,148.437,25.452,167.114
-1.541,1.665,1.880,116.943,26.367,133.118
-1.411,1.718,1.844,64.148,13.855,102.539
-1.271,1.724,1.756,8.240,-3.235,78.918
-1.177,1.722,1.627,-38.025,-13.733,60.852
-1.117,1.677,1.447,-67.627,-12.146,43.091
-1.074,1.577,1.222,-77.942,0.549,21.973
-1.016,1.409,1.010,-72.327,14.893,-4.211
-0.873,1.142,0.828,-58.777,22.034,-36.560
-0.655,0.810,0.704,-48.645,16.357,-72.449
-0.398,0.430,0.656,-45.471,-2.441,-103.088
-0.174,0.052,0.639,-47.852,-24.109,-125.000
0.123,-0.378,0.611,-47.974,-41.382,-138.428
0.340,-0.800,0.661,-46.570,-60.669,-146.790
0.637,-1.102,0.783,-41.138,-80.078,-136.353
0.796,-1.316,0.925,-30.640,-89.294,-110.474
0.844,-1.381,1.044,-21.240,-80.688,-85.388
0.866,-1.423,1.057,-9.521,-53.650,-56.580
0.818,-1.393,1.011,0.610,-24.414,-27.893
0.725,-1.262,0.950,10.864,-2.136,-2.563
0.574,-1.060,0.915,23.315,13.306,20.386
0.435,-0.849,0.885,35.156,25.085,39.246
0.266,-0.641,0.855,41.870,29.968,49.316
0.106,-0.390,0.882,39.551,23.071,50.781
0.017,-0.199,0.893,33.630,16.968,51.025
-0.082,-0.086,0.926,24.414,8.911,46.021
-0.142,-0.047,0.940,14.832,1.221,41.443
-0.191,-0.063,0.961,8.362,-4.211,37.476
-0.214,-0.059,1.001,7.446,-7.751,33.508
-0.236,-0.054,1.051,12.268,-7.812,29.785
-0.232,-0.045,1.085,18.311,-4.456,26.184
-0.247,-0.045,1.096,21.240,1.343,22.705
-0.255,-0.063,1.075,19.287,4.517,18.311
-0.236,-0.073,1.069,12.817,1.953,11.719
-0.201,-0.092,1.082,4.578,-3.479,3.906
-0.165,-0.109,1.105,-1.648,-6.165,-2.075
-0.154,-0.174,1.084,-3.784,-3.784,-5.676
-0.087,-0.252,1.005,-4.700,1.343,-9.827
-0.017,-0.327,0.953,-9.827,0.000,-15.747
0.047,-0.379,0.948,-17.151,-7.385,-19.775
0.101,-0.406,0.956,-21.484,-12.634,-20.081
0.108,-0.392,0.956,-20.996,-12.207,-17.212
0.107,-0.355,0.927,-14.404,-6.470,-12.512
0.098,-0.364,0.860,-5.371,1.709,-7.996
0.115,-0.396,0.802,0.793,5.920,-4.700
0.141,-0.416,0.793,1.465,1.709,-4.333
0.152,-0.425,0.821,0.549,-4.700,-4.211
0.150,-0.430,0.847,2.136,-7.202,-2.380
0.136,-0.439,0.858,6.348,-5.737,0.366
0.134,-0.440,0.876,10.376,-3.906,3.662
0.127,-0.434,0.904,12.817,-3.479,7.507
0.101,-0.417,0.931,13.733,-2.258,11.292
0.066,-0.389,0.934,15.686,0.793,13.977
0.040,-0.352,0.939,16.907,2.747,16.357
0.012,-0.307,0.951,16.968,2.747,18.005
-0.030,-0.263,0.968,16.418,2.747,18.982
-0.062,-0.228,0.977,16.113,4.028,18.188
-0.090,-0.214,0.985,15.991,5.249,16.174
-0.096,-0.208,0.997,14.465,5.249,13.245
-0.097,-0.206,1.000,12.207,4.700,9.888
-0.090,-0.216,1.000,9.033,4.028,6.287
-0.073,-0.239,0.990,4.456,2.441,2.014
-0.040,-0.263,0.980,-2.075,-0.427,-2.014
-0.017,-0.293,0.969,-7.751,-3.479,-4.822
0.006,-0.311,0.958,-9.888,-3.601,-5.737
0.023,-0.312,0.943,-8.118,-1.404,-5.188
0.024,-0.301,0.933,-3.845,1.953,-3.174
0.014,-0.286,0.918,1.343,5.981,-0.854
0.001,-0.280,0.895,5.432,9.155,0.488
0.005,-0.297,0.864,6.958,8.789,-0.061
0.014,-0.316,0.841,5.493,4.272,-1.709
0.036,-0.353,0.847,3.967,-1.953,-3.845
0.059,-0.401,0.872,4.211,-7.446,-6.287
0.097,-0.461,0.911,5.127,-10.498,-8.179
0.138,-0.505,0.960,5.615,-11.841,-7.568
0.165,-0.529,1.003,5.310,-11.780,-3.601
0.183,-0.543,1.024,4.211,-8.179,1.648
0.168,-0.527,1.027,3.296,-2.563,6.836
0.139,-0.496,1.018,3.601,3.906,11.169
0.111,-0.461,0.991,4.150,10.742,14.099
-0.848,1.347,2.196,114.136,56.152,34.668
-1.127,1.690,2.496,111.023,89.783,19.775
-1.429,1.925,2.629,107.605,130.554,0.183
-1.759,2.061,2.711,73.303,161.621,-31.555
-2.002,2.043,2.676,2.930,179.749,-80.750
-2.151,1.916,2.544,-93.811,176.697,-138.733
-2.266,1.630,2.345,-200.439,155.151,-194.275
-2.288,1.191,2.021,-298.279,129.089,-247.803
-2.224,0.633,1.586,-375.610,102.783,-296.143
-2.153,0.030,1.180,-433.655,71.777,-342.957
-1.952,-0.615,0.842,-471.680,32.593,-385.254
-1.510,-1.458,0.584,-487.854,-22.888,-410.828
-0.931,-2.739,0.486,-485.596,-97.961,-399.597
0.009,-4.000,0.552,-444.397,-172.729,-341.003
0.658,-4.000,0.868,-333.862,-210.754,-251.892
0.939,-4.000,1.169,-132.996,-148.010,-163.940
1.268,-4.000,1.381,92.468,-23.743,-129.700
2.033,-4.000,1.475,261.108,25.452,-150.085
2.673,-4.000,1.851,295.959,-21.301,-140.869
2.954,-4.000,2.116,191.467,-80.627,-68.115
2.553,-4.000,2.113,37.720,-79.590,35.400
1.615,-3.870,1.556,-62.378,15.991,132.263
0.883,-3.067,0.458,-72.144,155.457,197.388
0.344,-2.369,-0.454,-27.405,235.413,229.736
-0.109,-1.642,-0.769,29.175,210.937,245.056
-0.417,-1.134,-0.660,76.660,123.962,247.314
-0.537,-0.914,-0.360,96.497,29.358,226.562
-0.557,-0.870,-0.062,89.172,-40.588,192.566
-0.521,-0.900,0.164,69.580,-87.708,172.852
-0.526,-0.891,0.338,48.401,-114.136,162.598
-0.559,-0.822,0.502,32.166,-128.052,161.011
-0.655,-0.631,0.668,20.874,-131.531,168.518
-0.839,-0.419,0.795,12.329,-126.770,179.199
-1.033,-0.220,0.892,10.742,-116.699,187.988
-1.183,0.004,1.010,21.179,-105.774,189.819
-1.293,0.213,1.144,43.274,-98.572,186.096
-1.324,0.434,1.310,66.589,-92.285,174.011
-1.283,0.640,1.469,84.229,-86.487,154.785
-1.205,0.821,1.603,90.332,-80.261,131.714
-1.090,0.994,1.720,82.886,-78.125,110.291
-0.974,1.105,1.812,61.523,-75.012,90.088
-0.867,1.232,1.890,36.316,-65.186,80.139
-0.827,1.396,1.915,20.020,-45.959,82.153
-0.888,1.605,1.887,17.334,-13.489,86.243
-0.983,1.746,1.751,23.132,30.334,85.022
-1.109,1.809,1.540,24.963,70.007,73.792
-1.175,1.740,1.245,13.123,87.585,46.570
-1.116,1.489,0.920,-16.113,76.538,-2.014
-0.902,1.053,0.714,-50.293,39.246,-60.364
-0.610,0.541,0.651,-76.050,-7.568,-113.586
-0.196,-0.006,0.614,-82.825,-42.786,-151.306
0.108,-0.563,0.711,-73.364,-67.322,-170.654
0.502,-0.963,0.814,-55.847,-75.378,-163.757
0.747,-1.214,0.938,-36.377,-71.472,-134.888
0.847,-1.319,1.037,-22.949,-57.556,-101.501
0.849,-1.285,1.030,-11.719,-31.189,-66.345
0.774,-1.193,0.952,-0.916,-3.845,-32.288
0.622,-1.089,0.880,9.277,17.151,-2.197
0.470,-0.931,0.838,17.639,27.649,18.127
0.308,-0.729,0.832,25.146,30.640,26.489
0.192,-0.547,0.824,32.288,31.616,28.503
0.064,-0.437,0.846,37.109,29.236,31.189
0.039,-0.321,0.846,36.621,23.132,31.555
-0.059,-0.214,0.944,31.494,8.179,27.039
-0.092,-0.130,1.039,24.658,-4.089,24.963
-0.151,-0.094,1.080,19.653,-5.188,22.156
-0.208,-0.109,1.089,14.648,-2.930,16.174
-0.200,-0.132,1.091,8.972,-2.563,8.972
-0.174,-0.166,1.114,0.549,-4.944,0.671
-0.143,-0.217,1.130,-6.775,-4.883,-5.737
-0.107,-0.277,1.103,-10.254,-0.854,-9.766
-0.057,-0.347,1.052,-11.047,3.845,-12.024
-0.014,-0.401,1.005,-13.489,5.249,-12.695
0.024,-0.436,0.977,-17.700,3.662,-12.756
0.056,-0.447,0.947,-20.935,1.404,-12.634
0.087,-0.446,0.913,-20.203,2.075,-11.292
0.089,-0.455,0.866,-16.052,5.005,-8.728
0.097,-0.463,0.817,-10.925,7.568,-6.409
0.108,-0.458,0.785,-5.981,7.751,-5.798
0.121,-0.433,0.780,0.000,6.287,-5.005
0.118,-0.393,0.793,6.958,4.517,-2.441
0.101,-0.333,0.803,13.794,4.089,1.160
0.062,-0.278,0.810,19.165,5.127,3.967
0.020,-0.265,0.805,22.339,6.287,5.310
0.010,-0.261,0.816,19.531,3.174,3.052
0.007,-0.276,0.860,9.460,-5.798,-1.770
0.012,-0.328,0.897,-1.404,-15.320,-5.249
0.027,-0.385,0.935,-7.690,-20.630,-7.385
0.044,-0.422,0.981,-8.423,-21.179,-8.545
0.054,-0.439,1.012,-3.845,-16.724,-6.958
0.043,-0.447,1.033,2.502,-8.972,-3.967
0.044,-0.449,1.030,8.362,-1.709,-1.221
0.050,-0.439,1.024,10.803,3.174,0.366
0.056,-0.418,1.023,10.071,6.226,1.709
0.055,-0.396,1.015,6.287,7.690,2.808
0.045,-0.369,1.000,-0.549,6.714,3.052
0.038,-0.350,0.968,-7.629,5.432,3.174
0.039,-0.332,0.931,-11.902,4.517,2.625
0.039,-0.331,0.906,-13.306,3.357,0.977
0.050,-0.339,0.878,-12.268,3.540,-0.061
0.049,-0.350,0.862,-9.888,2.991,0.427
0.044,-0.351,0.867,-7.019,1.282,1.648
0.042,-0.364,0.862,-3.845,0.977,2.380
0.055,-0.380,0.865,-1.221,0.977,1.953
0.077,-0.411,0.876,-0.305,-0.977,1.892
0.092,-0.439,0.885,-1.770,-3.662,2.197
0.115,-0.461,0.902,-3.174,-5.676,3.540
0.127,-0.461,0.912,-2.991,-6.042,6.226
0.132,-0.461,0.909,-0.366,-3.357,10.620
0.128,-0.452,0.901,2.991,-0.610,16.174
0.109,-0.434,0.902,5.859,0.366,22.095
0.077,-0.407,0.898,8.728,1.587,27.283
0.044,-0.375,0.889,11.902,2.258,30.579
0.016,-0.341,0.885,14.038,1.648,31.006
-0.006,-0.305,0.899,13.977,-1.282,29.114
-0.022,-0.280,0.936,11.292,-5.493,24.597
-0.019,-0.277,0.956,6.775,-7.446,17.639
-0.013,-0.287,0.955,2.014,-7.935,10.925
-0.006,-0.302,0.956,-1.038,-8.362,6.409
-0.796,0.577,2.067,132.263,121.582,190.491
-0.960,0.719,2.218,180.237,188.782,184.509
-1.087,0.779,2.267,225.403,252.686,173.401
-1.226,0.851,2.377,251.526,292.114,160.706
-1.278,0.937,2.500,250.916,306.824,140.198
-1.303,0.995,2.575,210.083,302.063,101.990
-1.321,1.005,2.608,122.437,276.733,50.415
-1.331,0.932,2.501,-1.160,235.107,-10.376
-1.347,0.724,2.202,-147.522,181.641,-78.674
-1.347,0.404,1.804,-297.424,127.686,-149.658
-1.339,0.066,1.350,-417.725,78.308,-222.900
-1.238,-0.324,0.869,-495.667,17.700,-292.542
-1.073,-0.733,0.441,-551.453,-58.594,-351.746
-0.864,-1.185,0.160,-595.032,-153.503,-390.198
-0.560,-1.587,0.004,-620.056,-261.108,-404.358
-0.231,-2.151,-0.046,-613.281,-365.662,-393.921
0.227,-2.844,0.045,-563.782,-443.115,-355.957
0.808,-3.473,0.290,-457.642,-458.435,-293.396
1.214,-3.999,0.665,-278.198,-401.062,-214.478
1.560,-4.000,1.147,-51.697,-291.138,-157.166
2.006,-4.000,1.818,176.697,-191.711,-142.944
2.566,-4.000,2.370,319.763,-135.986,-139.160
3.021,-4.000,2.759,295.227,-121.155,-102.234
2.927,-4.000,2.965,163.391,-101.685,-18.372
2.170,-3.916,2.691,15.320,-22.827,93.079
1.152,-3.031,1.881,-64.026,122.986,190.552
0.371,-2.311,0.845,-59.143,282.837,248.413
-0.115,-1.705,-0.006,4.395,380.676,267.883
-0.402,-1.169,-0.463,82.642,381.531,258.972
-0.526,-0.837,-0.580,145.813,306.763,229.858
-0.525,-0.675,-0.462,173.584,189.575,186.401
-0.422,-0.695,-0.212,151.489,57.312,140.015
-0.360,-0.698,0.095,93.445,-64.209,101.624
-0.412,-0.705,0.409,31.677,-147.949,71.960
-0.307,-0.803,0.539,-11.963,-179.077,44.373
-0.263,-0.890,0.702,-35.828,-190.430,35.889
-0.262,-0.830,0.846,-42.114,-187.317,49.561
-0.361,-0.711,0.929,-37.170,-178.467,71.899
-0.491,-0.596,0.989,-22.156,-159.119,88.562
-0.609,-0.412,1.038,1.892,-134.399,94.543
-0.690,-0.246,1.123,33.508,-111.206,96.863
-0.767,-0.070,1.251,62.500,-94.360,95.947
-0.832,0.100,1.422,81.421,-84.412,93.262
-0.781,0.304,1.610,84.656,-79.102,91.248
-0.774,0.498,1.791,73.975,-72.144,91.553
-0.743,0.684,1.877,59.021,-55.969,95.276
-0.696,0.885,1.913,45.410,-33.813,104.858
-0.789,1.213,2.000,36.133,-6.226,122.009
-1.011,1.625,2.008,45.898,34.912,141.113
-1.292,1.938,1.892,58.289,88.806,152.832
-1.566,2.170,1.498,57.556,130.493,142.334
-1.785,2.265,1.160,29.907,127.563,98.694
-1.640,1.986,0.909,-10.010,88.013,27.954
-1.235,1.382,0.747,-51.819,26.489,-53.650
-0.836,0.767,0.772,-91.553,-39.795,-124.573
-0.357,0.156,0.913,-108.765,-87.036,-169.128
-0.028,-0.456,1.015,-98.999,-106.384,-187.683
0.340,-0.896,1.092,-77.271,-96.863,-185.059
0.627,-1.213,1.062,-53.650,-69.153,-157.043
0.760,-1.391,1.031,-41.748,-46.448,-124.634
0.782,-1.400,1.002,-38.025,-31.860,-93.994
0.791,-1.335,0.943,-35.767,-18.860,-64.209
0.756,-1.234,0.865,-32.410,-7.202,-36.743
0.628,-1.060,0.841,-27.344,0.549,-14.832
0.483,-0.847,0.834,-17.334,8.850,1.770
0.342,-0.634,0.772,-3.235,22.766,14.465
0.212,-0.448,0.713,13.367,35.400,23.804
0.016,-0.299,0.671,32.776,41.565,30.945
-0.068,-0.159,0.663,50.110,41.382,31.616
-0.176,-0.080,0.743,58.777,25.574,28.320
-0.193,-0.058,0.862,54.443,4.150,21.240
-0.162,-0.089,0.988,39.185,-14.282,9.705
-0.113,-0.136,1.107,21.790,-28.625,2.197
-0.097,-0.185,1.194,7.935,-32.776,-0.671
-0.107,-0.219,1.220,-0.793,-25.269,-1.221
-0.114,-0.257,1.178,-4.028,-11.230,-2.441
-0.108,-0.323,1.104,-5.310,1.160,-4.639
-0.086,-0.359,1.051,-7.263,5.798,-5.676
-0.061,-0.383,1.014,-8.606,5.249,-6.653
-0.032,-0.393,0.982,-10.193,4.395,-8.911
0.004,-0.391,0.940,-10.559,4.883,-11.414
0.036,-0.432,0.897,-9.583,4.456,-12.207
0.101,-0.451,0.865,-9.949,1.831,-11.414
0.135,-0.440,0.863,-10.193,-0.854,-9.033
0.155,-0.415,0.855,-7.751,0.488,-5.127
0.143,-0.375,0.833,-3.052,5.798,-1.282
0.110,-0.350,0.775,3.052,10.681,2.747
0.087,-0.325,0.747,6.165,9.338,5.432
0.084,-0.317,0.759,3.540,1.831,3.845
0.092,-0.329,0.800,0.000,-6.226,1.648
0.082,-0.351,0.836,-0.122,-10.376,0.793
0.067,-0.356,0.866,4.395,-9.644,0.000
0.060,-0.367,0.884,10.681,-7.080,0.061
0.039,-0.364,0.930,15.381,-5.859,1.221
0.016,-0.345,0.981,18.738,-4.211,2.197
-0.008,-0.322,1.020,21.790,-1.282,3.418
-0.041,-0.307,1.039,24.231,3.296,4.395
-0.053,-0.284,1.024,24.414,7.446,3.662
-0.050,-0.266,1.028,20.386,7.385,0.977
-0.038,-0.264,1.023,13.550,5.737,-2.380
-0.023,-0.282,1.009,5.615,4.211,-5.371
-0.005,-0.307,0.999,-1.221,2.625,-8.301
0.021,-0.333,0.987,-5.432,1.831,-9.705
0.044,-0.372,0.980,-7.446,2.441,-9.583
0.073,-0.418,0.950,-7.690,4.395,-8.789
0.092,-0.437,0.943,-7.263,5.249,-6.897
0.102,-0.450,0.914,-5.676,5.188,-3.174
0.115,-0.469,0.887,-3.906,5.371,0.183
0.128,-0.493,0.869,-3.845,4.395,2.625
0.120,-0.476,0.864,-3.174,2.930,5.005
0.100,-0.432,0.858,-0.122,2.380,5.920
0.084,-0.385,0.860,3.418,2.136,6.348
0.071,-0.346,0.866,4.883,0.916,7.568
0.054,-0.322,0.877,4.761,-1.160,8.301
0.029,-0.311,0.883,3.418,-3.174,8.850
0.001,-0.321,0.892,2.869,-4.333,8.484
-0.002,-0.348,0.892,4.150,-4.517,6.958
0.013,-0.381,0.913,6.836,-4.944,5.127
0.029,-0.403,0.954,9.277,-5.676,4.883
-0.716,0.972,1.550,32.349,45.044,94.177
-1.027,1.285,1.762,50.110,83.435,97.961
-1.327,1.580,1.903,56.763,117.615,83.679
-1.570,1.770,1.957,39.917,139.038,45.166
-1.748,1.841,1.936,-5.493,136.353,-6.531
-1.847,1.789,1.941,-74.402,107.971,-60.852
-1.922,1.635,1.936,-149.780,68.542,-113.281
-1.959,1.378,1.866,-210.815,39.429,-163.330
-1.919,1.064,1.710,-246.094,26.917,-209.534
-1.842,0.721,1.500,-259.216,25.146,-253.845
-1.699,0.148,1.242,-262.512,24.292,-296.997
-1.235,-0.652,0.971,-264.099,8.545,-326.965
-0.820,-1.237,0.896,-267.517,-34.668,-329.773
-0.567,-1.798,1.004,-257.935,-80.994,-320.374
-0.163,-2.544,1.008,-216.309,-95.276,-308.228
0.278,-3.023,1.115,-165.710,-105.652,-287.170
0.544,-3.237,1.275,-115.662,-109.924,-255.249
1.078,-3.999,0.939,-58.411,-76.416,-234.497
1.805,-4.000,1.021,-10.376,-78.064,-252.014
2.376,-4.000,1.559,55.603,-138.306,-253.784
3.197,-4.000,2.216,111.389,-192.444,-191.650
3.586,-4.000,2.465,113.892,-183.350,-84.290
3.127,-4.000,2.421,47.058,-82.642,37.720
1.991,-3.967,1.540,3.174,101.257,161.133
0.880,-3.044,0.191,23.987,303.467,251.343
0.051,-2.171,-1.018,95.093,414.917,295.837
-0.502,-1.471,-1.478,178.345,385.193,294.678
-0.762,-1.003,-1.372,242.187,250.488,260.315
-0.737,-0.883,-0.855,256.226,74.402,218.201
-0.667,-0.917,-0.220,202.454,-88.318,178.162
-0.684,-0.978,0.314,116.455,-198.853,145.081
-0.656,-1.027,0.700,40.710,-256.714,121.155
-0.673,-1.076,1.042,-4.944,-271.179,115.601
-0.719,-1.059,1.307,-11.841,-237.671,123.596
-0.837,-0.896,1.496,12.695,-182.922,138.428
-0.955,-0.718,1.545,57.495,-130.920,160.156
-1.206,-0.519,1.637,101.318,-90.088,179.321
-1.357,-0.190,1.782,136.230,-59.692,185.303
-1.451,0.095,1.891,155.579,-47.363,180.725
-1.455,0.391,2.017,144.409,-55.359,166.687
-1.385,0.651,2.153,110.718,-73.853,146.057
-1.257,0.847,2.278,63.416,-88.013,124.878
-1.189,1.095,2.385,15.137,-84.045,112.976
-1.132,1.359,2.418,-13.062,-48.889,113.831
-1.206,1.686,2.299,-19.836,11.963,122.437
-1.450,1.984,2.035,-10.254,84.778,134.277
-1.717,2.228,1.678,4.333,143.372,135.376
-1.753,2.246,1.099,0.366,169.861,101.929
-1.576,1.946,0.551,-40.283,148.132,27.771
-1.192,1.423,0.207,-94.788,77.942,-56.458
-0.768,0.776,0.208,-132.568,-15.015,-128.479
-0.294,0.073,0.371,-135.620,-81.116,-178.955
0.182,-0.658,0.493,-103.455,-95.154,-202.942
0.660,-1.273,0.555,-57.861,-82.886,-195.740
0.951,-1.605,0.703,-23.560,-73.486,-167.847
1.141,-1.723,0.857,-5.432,-65.186,-121.704
1.095,-1.683,1.003,1.892,-51.819,-72.632
1.002,-1.518,1.018,7.690,-21.912,-33.081
0.843,-1.326,0.930,18.616,9.827,2.441
0.626,-1.099,0.899,30.151,27.405,31.799
0.387,-0.818,0.870,42.175,37.659,50.537
0.170,-0.539,0.828,52.673,44.556,57.800
0.015,-0.324,0.798,55.725,42.847,54.321
-0.105,-0.172,0.831,48.706,24.963,46.692
-0.189,-0.063,0.930,33.875,5.493,33.630
-0.216,-0.039,1.015,20.020,-10.071,19.226
-0.211,-0.078,1.104,10.193,-19.958,8.911
-0.189,-0.137,1.171,5.371,-20.813,0.732
-0.163,-0.191,1.201,4.395,-16.724,-2.930
-0.139,-0.213,1.216,1.770,-11.292,-2.991
-0.137,-0.253,1.182,-3.662,-3.113,-4.517
-0.109,-0.305,1.102,-10.376,4.333,-7.935
-0.064,-0.377,1.010,-16.418,8.301,-12.512
-0.000,-0.436,0.950,-21.301,6.226,-16.235
0.052,-0.472,0.906,-24.353,2.380,-17.761
0.091,-0.474,0.862,-23.499,1.343,-16.663
0.096,-0.487,0.805,-19.348,2.380,-13.916
0.131,-0.483,0.766,-14.954,1.587,-11.719
0.151,-0.459,0.766,-12.085,-1.587,-10.559
0.155,-0.440,0.778,-8.301,-3.540,-7.812
0.139,-0.431,0.773,-3.052,-2.930,-4.639
0.117,-0.428,0.749,2.808,-1.648,-2.075
0.106,-0.416,0.765,7.385,-2.747,-1.343
0.095,-0.386,0.817,8.972,-5.615,-2.075
0.081,-0.374,0.860,8.240,-6.287,-3.113
0.066,-0.387,0.882,7.141,-5.737,-3.601
0.067,-0.407,0.897,5.981,-5.493,-3.784
0.071,-0.413,0.929,5.737,-5.432,-2.808
0.062,-0.406,0.964,6.836,-3.845,-1.404
0.041,-0.405,0.977,8.240,0.854,0.000
0.049,-0.424,0.962,9.338,5.554,0.061
0.058,-0.418,0.973,8.789,6.836,0.366
0.060,-0.391,0.993,6.958,7.324,1.343
0.045,-0.361,0.999,5.554,9.521,2.441
0.008,-0.341,0.974,4.517,11.536,3.113
0.014,-0.336,0.914,0.977,11.475,1.831
0.023,-0.336,0.889,-6.348,6.897,-2.441
0.035,-0.351,0.887,-11.353,0.671,-5.737
0.043,-0.369,0.895,-11.902,-1.953,-7.996
0.053,-0.390,0.892,-9.827,-1.831,-9.399
0.065,-0.391,0.896,-6.226,-1.831,-10.376
0.070,-0.390,0.914,-2.380,-0.122,-9.888
0.055,-0.400,0.921,1.526,3.418,-8.423
0.070,-0.417,0.919,4.822,5.432,-7.812
0.084,-0.435,0.933,5.737,5.127,-7.751
0.092,-0.443,0.944,4.944,4.211,-7.202
0.087,-0.448,0.946,2.930,2.563,-7.141
0.089,-0.449,0.955,-0.244,0.183,-7.385
0.102,-0.453,0.950,-2.563,-1.221,-7.263
0.100,-0.449,0.938,-3.601,-1.770,-6.409
0.097,-0.439,0.928,-3.784,-1.404,-4.822
0.098,-0.428,0.918,-3.845,-1.038,-2.930
0.090,-0.435,0.900,-3.723,-0.671,-1.343
0.084,-0.426,0.871,-4.333,-1.221,0.122
0.084,-0.421,0.853,-4.028,-2.563,0.732
0.078,-0.414,0.854,-2.380,-3.845,1.770
0.071,-0.423,0.855,-0.671,-4.333,2.991
0.060,-0.416,0.849,0.244,-5.066,3.174
0.055,-0.406,0.843,0.854,-6.042,2.319
-0.506,1.012,1.550,3.235,67.139,-46.082
-0.625,1.229,1.641,-6.470,81.055,-57.312
-0.742,1.448,1.735,-13.062,95.276,-67.871
-0.850,1.670,1.820,-16.602,112.976,-77.698
-0.988,1.815,1.875,-18.738,135.864,-87.158
-1.162,1.807,1.852,-26.917,160.950,-100.830
-1.312,1.648,1.708,-52.246,180.847,-124.634
-1.385,1.369,1.450,-99.731,180.725,-156.860
-1.429,0.995,1.114,-158.875,155.457,-193.359
-1.360,0.493,0.850,-210.144,108.948,-230.347
-1.085,-0.179,0.720,-248.962,44.434,-257.019
-0.790,-0.775,0.757,-280.579,-28.320,-261.780
-0.484,-1.449,0.832,-306.824,-93.323,-243.958
-0.135,-2.233,0.842,-317.749,-132.080,-206.238
0.108,-2.829,0.838,-312.500,-157.288,-149.231
0.282,-3.276,0.666,-290.222,-167.175,-89.722
0.483,-3.486,0.650,-235.962,-172.791,-56.580
0.664,-3.968,0.955,-115.234,-182.251,-67.810
1.137,-4.000,1.548,49.377,-192.383,-110.229
1.800,-4.000,2.291,181.580,-195.923,-129.089
2.198,-4.000,2.835,215.942,-168.396,-85.388
2.163,-4.000,2.983,171.936,-79.773,-3.601
1.589,-3.618,2.492,103.577,67.688,81.055
0.844,-2.814,1.490,61.035,235.596,151.306
0.290,-2.147,0.395,54.138,348.755,193.420
-0.069,-1.643,-0.436,77.026,367.798,204.651
-0.213,-1.264,-0.808,101.990,289.490,188.965
-0.237,-1.054,-0.689,113.464,152.405,162.476
-0.166,-1.028,-0.301,110.413,19.470,138.062
-0.105,-0.999,0.116,87.952,-71.838,117.981
-0.072,-1.093,0.398,65.186,-108.398,103.333
-0.012,-1.197,0.496,54.810,-104.858,95.947
-0.016,-1.246,0.569,57.434,-96.741,108.093
-0.111,-1.085,0.657,65.002,-90.881,130.798
-0.362,-0.807,0.758,67.200,-93.018,150.024
-0.638,-0.583,0.876,65.552,-99.426,164.001
-0.820,-0.402,0.998,63.293,-105.408,165.649
-0.940,-0.283,1.149,65.186,-113.831,159.119
-0.966,-0.125,1.311,67.749,-126.099,149.475
-0.933,0.033,1.547,68.420,-140.808,142.822
-0.926,0.208,1.814,68.542,-147.827,142.334
-0.908,0.456,2.053,69.092,-137.817,149.292
-0.896,0.819,2.232,69.946,-108.398,159.119
-0.972,1.315,2.400,74.890,-57.373,171.692
-1.236,1.989,2.509,91.492,8.240,188.293
-1.730,2.724,2.473,110.596,76.050,201.294
-2.294,3.302,2.114,104.309,120.056,181.213
-2.562,3.425,1.645,40.771,122.131,101.685
-2.216,2.859,0.979,-58.594,90.454,-15.686
-1.644,1.893,0.567,-160.767,10.010,-130.432
-1.091,0.801,0.505,-219.116,-85.754,-215.820
-0.415,-0.323,0.593,-204.773,-138.184,-258.240
0.275,-1.266,0.721,-140.076,-138.611,-257.935
0.927,-1.885,0.831,-73.364,-125.549,-223.511
1.160,-2.167,1.066,-38.452,-119.385,-174.500
1.227,-2.215,1.197,-28.503,-93.872,-114.441
1.200,-2.069,1.137,-25.635,-50.842,-63.354
1.038,-1.804,0.964,-19.531,-14.404,-25.574
0.841,-1.436,0.861,-12.634,5.371,13.977
0.592,-0.999,0.803,-5.493,20.691,43.823
0.305,-0.564,0.714,6.042,31.372,60.730
0.032,-0.237,0.650,16.724,34.607,69.397
-0.164,0.022,0.629,25.879,34.363,71.594
-0.330,0.211,0.694,34.851,28.198,62.073
-0.422,0.309,0.855,40.039,10.254,46.387
-0.431,0.300,1.008,40.405,0.488,29.907
-0.432,0.234,1.156,32.837,-6.714,11.841
-0.402,0.115,1.269,21.912,-10.864,-1.404
-0.340,-0.039,1.337,11.230,-10.010,-9.521
-0.278,-0.185,1.346,3.113,-4.272,-13.184
-0.219,-0.315,1.280,-3.052,4.272,-15.808
-0.155,-0.426,1.182,-9.766,10.132,-17.456
-0.083,-0.509,1.099,-18.494,10.071,-18.799
-0.014,-0.573,1.024,-26.672,7.141,-19.836
0.053,-0.609,0.959,-30.701,5.188,-19.409
0.116,-0.610,0.887,-28.748,5.798,-16.541
0.151,-0.564,0.815,-21.912,8.423,-10.376
0.146,-0.510,0.753,-13.184,11.047,-2.991
0.137,-0.483,0.688,-5.249,13.062,2.808
0.127,-0.413,0.691,2.136,10.193,6.042
0.100,-0.342,0.749,8.423,3.418,8.728
0.080,-0.287,0.788,10.864,3.662,9.094
0.025,-0.264,0.802,10.315,4.395,8.057
0.005,-0.247,0.813,8.911,1.953,7.019
-0.022,-0.234,0.851,8.057,-2.686,5.676
-0.043,-0.229,0.901,9.277,-5.188,6.104
-0.069,-0.228,0.951,12.024,-4.700,3.723
-0.067,-0.234,0.978,14.099,-2.380,1.038
-0.061,-0.252,0.998,13.184,-1.648,-1.831
-0.058,-0.261,1.022,10.498,-2.930,-2.747
-0.063,-0.287,1.047,7.507,-2.930,-3.967
-0.038,-0.312,1.041,3.967,-0.854,-5.920
-0.018,-0.328,1.035,0.366,0.305,-7.629
0.001,-0.332,1.020,-1.648,2.563,-8.240
0.016,-0.362,0.986,-2.075,5.798,-8.057
0.041,-0.379,0.951,-3.601,7.324,-7.568
0.059,-0.385,0.936,-5.859,5.859,-6.470
0.082,-0.387,0.916,-7.080,4.761,-5.066
0.092,-0.385,0.898,-7.263,5.554,-3.479
0.082,-0.387,0.869,-4.944,7.507,-1.831
0.063,-0.369,0.843,-2.197,8.179,0.061
0.050,-0.352,0.835,-1.587,4.517,1.038
0.049,-0.345,0.846,-2.991,-0.793,0.427
0.043,-0.329,0.872,-2.258,-4.578,-0.183
0.025,-0.300,0.902,2.258,-4.700,0.366
-0.007,-0.303,0.912,8.423,-1.953,1.038
0.000,-0.314,0.916,12.207,-1.160,1.831
0.002,-0.319,0.953,11.292,-4.517,2.136
0.004,-0.326,0.994,8.545,-6.897,1.953
-0.005,-0.324,1.012,7.019,-5.249,1.953
-0.030,-0.331,1.017,6.836,-1.526,2.380
-0.044,-0.356,1.004,7.019,1.587,2.502
-0.038,-0.374,1.008,5.371,1.404,0.916
-0.020,-0.395,1.017,1.038,-1.160,-1.770
0.013,-0.422,1.009,-4.028,-3.418,-4.272
0.039,-0.439,0.997,-6.958,-4.272,-5.188
0.058,-0.439,0.985,-6.653,-3.723,-3.662
0.073,-0.427,0.967,-3.906,-1.160,-0.793
0.068,-0.404,0.948,-1.709,1.099,2.747
-0.564,1.120,1.589,48.828,67.505,22.705
-0.736,1.422,1.687,63.538,90.637,31.067
-0.881,1.704,1.764,67.688,108.948,39.368
-1.099,1.839,1.810,59.143,122.192,45.410
-1.406,1.904,1.890,34.180,128.113,41.870
-1.650,1.844,1.859,-5.249,128.906,17.273
-1.823,1.681,1.683,-61.890,130.432,-31.128
-1.903,1.485,1.380,-126.404,120.728,-100.037
-1.898,1.164,1.025,-182.434,93.079,-175.781
-1.797,0.667,0.640,-223.755,52.429,-247.314
-1.479,0.009,0.398,-251.343,-5.127,-304.993
-0.991,-0.754,0.321,-271.179,-86.975,-332.703
-0.504,-1.504,0.404,-286.377,-178.406,-318.420
-0.081,-2.210,0.665,-283.997,-243.103,-271.118
0.350,-2.882,0.858,-239.929,-239.502,-212.158
0.694,-3.189,1.031,-157.166,-174.133,-153.992
0.836,-3.319,0.975,-40.649,-62.683,-107.056
1.121,-3.928,0.612,89.233,57.495,-101.501
1.569,-4.000,0.658,179.077,74.341,-136.047
2.212,-4.000,1.129,197.876,-29.968,-153.687
2.572,-4.000,1.905,129.272,-157.227,-115.662
2.543,-4.000,2.494,29.785,-198.303,-49.316
2.312,-3.990,2.387,-29.053,-112.244,23.743
1.757,-3.461,1.615,-33.508,41.077,106.873
1.014,-2.814,0.754,-12.268,173.523,186.157
0.465,-2.456,0.060,27.954,242.676,232.788
0.184,-2.216,-0.243,80.627,229.980,245.850
0.011,-1.915,-0.125,121.216,152.771,245.178
-0.084,-1.697,0.152,129.944,61.523,237.915
-0.124,-1.613,0.403,100.098,-17.273,221.802
-0.195,-1.583,0.571,58.472,-73.120,207.275
-0.279,-1.548,0.695,28.564,-107.971,201.233
-0.409,-1.406,0.868,9.338,-131.287,200.195
-0.613,-1.170,1.009,-0.977,-136.169,204.895
-0.807,-0.948,1.089,-4.089,-118.530,209.473
-1.038,-0.737,1.154,0.122,-108.276,219.238
-1.236,-0.504,1.253,9.033,-104.553,230.347
-1.422,-0.222,1.391,17.761,-99.670,234.436
-1.552,0.048,1.536,25.818,-85.693,229.980
-1.604,0.340,1.651,32.043,-59.814,221.619
-1.613,0.689,1.748,40.466,-26.367,214.844
-1.664,1.064,1.798,50.903,10.803,213.074
-1.799,1.578,1.854,60.547,48.584,218.079
-2.030,2.298,1.717,71.838,80.505,225.647
-2.712,3.113,1.751,67.627,90.515,219.788
-3.180,3.652,1.408,55.969,91.797,195.984
-3.295,3.649,1.197,33.875,79.895,125.610
-2.766,3.013,0.988,10.559,73.669,10.742
-2.026,1.980,0.757,-15.320,54.810,-118.347
-1.364,1.004,0.718,-58.655,-1.892,-209.473
-0.726,0.119,0.653,-95.947,-60.120,-254.333
-0.131,-0.674,0.693,-122.925,-111.694,-272.095
0.379,-1.357,0.819,-138.184,-153.870,-266.663
0.834,-1.837,1.020,-140.076,-173.706,-243.469
1.109,-2.133,1.247,-121.338,-166.687,-205.017
1.345,-2.270,1.374,-81.482,-127.441,-158.020
1.430,-2.217,1.351,-32.898,-62.988,-109.680
1.379,-1.977,1.214,12.573,1.099,-57.434
1.205,-1.691,1.021,45.166,49.927,-6.958
0.934,-1.266,0.857,61.646,75.378,32.471
0.599,-0.851,0.735,67.871,81.177,62.622
0.365,-0.492,0.622,64.636,76.416,81.055
0.117,-0.220,0.583,54.932,63.477,83.618
-0.086,-0.008,0.649,44.495,37.842,78.003
-0.216,0.083,0.777,34.485,11.108,67.566
-0.295,0.097,0.930,25.818,-7.629,53.162
-0.325,0.064,1.058,22.949,-14.099,40.466
-0.355,0.039,1.184,27.039,-13.489,31.372
-0.367,0.013,1.270,32.471,-7.507,24.536
-0.381,-0.011,1.306,32.776,-0.122,18.066
-0.345,-0.066,1.291,26.611,5.676,11.902
-0.294,-0.105,1.252,15.076,6.226,6.409
-0.259,-0.141,1.218,2.625,4.517,1.587
-0.221,-0.177,1.150,-7.874,3.967,-4.333
-0.169,-0.223,1.056,-17.151,3.235,-11.902
-0.111,-0.247,0.983,-23.987,-0.671,-18.188
-0.063,-0.281,0.926,-25.940,-3.906,-22.644
0.020,-0.335,0.849,-22.888,-2.991,-26.550
0.081,-0.369,0.821,-18.494,-7.080,-27.344
0.135,-0.384,0.807,-13.794,-7.874,-26.062
0.179,-0.408,0.791,-7.507,-4.517,-23.437
0.218,-0.421,0.790,-2.380,-2.563,-18.799
0.221,-0.406,0.802,-0.061,-2.808,-11.963
0.176,-0.364,0.822,1.343,-3.235,-5.493
0.123,-0.336,0.837,3.296,-1.770,-1.343
0.080,-0.333,0.847,5.615,-0.854,1.160
0.041,-0.310,0.875,8.362,-3.113,1.648
0.031,-0.297,0.908,11.902,-4.700,2.258
0.016,-0.294,0.949,14.587,-4.822,0.244
0.015,-0.319,0.977,16.541,-3.052,-0.549
0.011,-0.327,1.000,17.029,-0.977,-1.709
0.005,-0.318,1.023,17.395,0.671,-2.319
0.011,-0.310,1.042,15.198,1.648,-3.113
0.023,-0.296,1.059,8.362,0.610,-3.479
0.018,-0.293,1.058,-0.061,-0.610,-3.113
0.007,-0.283,1.033,-6.409,1.221,-2.136
-0.005,-0.274,1.000,-8.972,4.333,-1.404
-0.011,-0.277,0.967,-8.423,7.019,-0.549
-0.005,-0.284,0.930,-7.507,8.362,-0.732
0.006,-0.298,0.911,-6.592,8.118,-1.770
0.020,-0.307,0.891,-5.249,7.263,-3.540
0.042,-0.327,0.874,-4.089,5.249,-4.639
0.053,-0.340,0.875,-2.441,2.869,-4.944
0.058,-0.342,0.898,0.183,0.244,-3.906
0.049,-0.329,0.932,3.296,-1.221,-2.014
0.041,-0.324,0.957,5.554,-0.977,-0.366
0.038,-0.320,0.976,5.554,-0.122,0.549
0.024,-0.318,0.981,2.991,0.061,1.404
0.014,-0.310,0.971,0.061,0.122,1.343
0.005,-0.309,0.956,-2.197,0.183,1.038
-0.006,-0.319,0.938,-4.517,-0.488,-0.183
-0.007,-0.331,0.921,-6.348,-1.465,-2.319
0.010,-0.356,0.907,-6.592,-2.197,-4.333
0.021,-0.381,0.892,-5.188,-2.197,-5.371
0.037,-0.399,0.875,-0.793,-0.916,-5.493
0.056,-0.415,0.875,5.493,0.488,-4.822
0.077,-0.411,0.885,10.559,1.587,-3.235
0.084,-0.402,0.898,13.489,2.258,-1.343
0.077,-0.385,0.921,13.733,2.319,1.160
-0.839,0.780,1.730,198.486,196.533,105.774
-0.948,1.017,1.854,237.549,251.770,115.295
-1.034,1.290,1.944,247.498,279.602,112.183
-1.060,1.409,1.960,211.304,282.043,88.379
-1.036,1.465,1.882,114.380,250.610,40.588
-1.026,1.405,1.759,-26.245,183.044,-18.982
-0.988,1.175,1.615,-164.429,103.699,-79.529
-0.924,0.856,1.440,-266.846,37.048,-136.780
-0.861,0.528,1.236,-319.214,1.038,-184.753
-0.728,0.116,1.005,-331.787,-11.902,-221.680
-0.518,-0.303,0.738,-333.496,-29.175,-242.371
-0.314,-0.740,0.466,-341.553,-67.200,-245.483
-0.075,-1.131,0.217,-354.309,-123.718,-223.206
-0.064,-1.278,0.118,-365.112,-199.097,-181.152
-0.172,-1.258,0.228,-352.051,-263.611,-141.113
-0.304,-1.190,0.463,-291.748,-276.489,-116.272
-0.428,-1.176,0.623,-188.171,-226.379,-115.784
-0.506,-1.283,0.665,-71.350,-139.893,-137.756
-0.456,-1.600,0.591,42.236,-49.622,-182.617
-0.109,-2.469,0.364,130.676,11.169,-242.126
0.399,-3.567,0.417,166.260,-19.836,-297.852
1.060,-4.000,0.961,150.330,-149.658,-321.167
1.921,-4.000,1.842,113.892,-307.129,-281.250
2.698,-4.000,2.749,68.176,-420.471,-185.608
2.633,-4.000,3.726,38.025,-416.077,-60.547
2.188,-4.000,3.686,40.039,-223.999,32.288
1.594,-3.804,2.950,41.443,72.937,117.554
0.741,-3.266,1.798,42.603,326.294,190.369
-0.055,-2.506,0.783,73.303,464.661,261.108
-0.583,-1.708,-0.081,105.530,500.183,292.542
-0.857,-1.022,-0.468,125.854,437.805,278.137
-0.880,-0.642,-0.537,138.977,303.955,233.765
-0.714,-0.656,-0.388,129.456,136.963,182.434
-0.519,-0.745,-0.044,80.688,-30.701,137.085
-0.375,-0.724,0.355,18.005,-158.386,104.126
-0.380,-0.682,0.712,-27.954,-224.426,82.947
-0.281,-0.575,0.930,-46.509,-220.947,69.275
-0.240,-0.483,1.013,-39.917,-175.598,71.838
-0.226,-0.463,0.975,-19.653,-123.901,90.027
-0.297,-0.388,0.928,3.784,-90.149,114.685
-0.421,-0.263,0.908,28.198,-64.636,136.414
-0.519,-0.098,0.972,50.476,-44.922,152.466
-0.632,0.102,1.090,68.726,-36.865,162.964
-0.741,0.313,1.267,79.590,-35.522,163.879
-0.786,0.483,1.404,80.688,-33.630,154.053
-0.821,0.599,1.498,70.740,-33.081,138.489
-0.848,0.678,1.552,52.063,-31.982,121.948
-0.841,0.750,1.566,28.137,-30.090,105.896
-0.805,0.840,1.583,4.150,-27.161,92.346
-0.786,0.924,1.567,-14.771,-19.592,85.999
-0.791,1.000,1.540,-24.475,-5.981,83.191
-0.845,1.070,1.482,-28.076,10.925,79.041
-0.899,1.091,1.385,-27.893,28.992,73.669
-0.953,1.077,1.251,-27.710,42.969,65.491
-0.975,1.023,1.104,-28.137,50.171,46.936
-0.901,0.924,0.972,-24.536,47.668,16.968
-0.732,0.725,0.877,-19.043,34.485,-20.386
-0.463,0.453,0.839,-18.433,13.000,-57.495
-0.219,0.150,0.836,-26.550,-13.611,-85.999
0.048,-0.188,0.841,-39.978,-37.109,-104.004
0.370,-0.561,0.845,-50.598,-52.429,-110.657
0.591,-0.887,0.875,-56.335,-68.115,-104.187
0.784,-1.088,0.960,-56.702,-77.332,-85.571
0.917,-1.209,1.010,-48.889,-66.589,-58.594
0.919,-1.194,1.019,-35.767,-43.213,-33.386
0.886,-1.116,0.946,-18.372,-15.747,-7.507
0.776,-0.995,0.858,-1.526,7.202,19.592
0.592,-0.796,0.808,13.550,22.278,42.114
0.341,-0.554,0.820,29.907,33.569,59.143
0.185,-0.308,0.785,42.969,44.739,64.453
0.027,-0.125,0.770,44.128,40.527,58.777
-0.091,-0.009,0.803,28.992,19.836,49.255
-0.156,0.022,0.833,7.996,2.136,39.368
-0.223,0.017,0.910,-6.531,-12.573,30.090
-0.259,-0.006,0.980,-8.362,-18.250,22.522
-0.266,-0.031,1.028,-0.916,-13.062,14.954
-0.272,-0.047,1.062,7.812,-5.798,7.019
-0.262,-0.084,1.065,11.475,-1.587,-1.221
-0.203,-0.181,1.058,7.935,-2.563,-9.705
-0.118,-0.278,1.072,-1.648,-9.705,-17.151
-0.050,-0.341,1.087,-12.634,-17.273,-21.423
0.004,-0.380,1.069,-20.264,-18.127,-23.621
0.058,-0.441,0.992,-23.193,-13.123,-24.475
0.123,-0.503,0.911,-24.109,-8.972,-24.780
0.185,-0.543,0.868,-22.827,-8.362,-23.193
0.231,-0.568,0.846,-18.555,-8.057,-18.494
0.242,-0.553,0.831,-10.864,-5.127,-13.123
0.245,-0.505,0.818,-0.854,0.061,-8.484
0.233,-0.436,0.820,7.202,3.174,-3.784
0.202,-0.364,0.831,10.254,4.211,0.366
0.159,-0.310,0.835,11.108,4.272,3.601
0.130,-0.283,0.834,11.841,4.028,5.981
0.109,-0.259,0.855,11.658,3.174,6.409
0.086,-0.243,0.883,10.864,2.441,5.554
0.039,-0.235,0.891,10.742,3.296,4.578
